"participant","global_trial_num","block_num","trial_type","local_trial_num","targetpresence","setsize","targetlocation","response","correctness","responsetime","target","distractor"
1,1,1,"practice",1,1,"2",3,1,1,1.9043,"9","6"
1,2,1,"practice",2,1,"6",12,-1,0,2.0017,"9","6"
1,3,1,"practice",3,0,"2",0,0,1,0.773,"9","6"
1,4,1,"practice",4,0,"3",0,0,1,0.8897,"9","6"
1,5,1,"practice",5,0,"2",0,0,1,0.7331,"9","6"
1,6,1,"practice",6,1,"6",11,0,0,1.0298,"9","6"
1,7,1,"practice",7,0,"3",0,0,1,1.3192,"9","6"
1,8,1,"practice",8,1,"4",7,1,1,1.3313,"9","6"
1,9,1,"practice",9,1,"2",3,1,1,1.1975,"9","6"
1,10,1,"practice",10,1,"4",9,1,1,0.8482,"9","6"
1,11,1,"practice",11,1,"6",8,1,1,0.7751,"9","6"
1,12,1,"practice",12,0,"4",0,1,0,0.62,"9","6"
1,13,1,"practice",13,1,"2",2,1,1,1.7534,"9","6"
1,14,1,"practice",14,0,"6",0,1,0,0.6385,"9","6"
1,15,1,"practice",15,1,"4",7,1,1,1.3801,"9","6"
1,16,1,"practice",16,1,"4",11,1,1,0.8606,"9","6"
1,17,1,"practice",17,1,"2",1,1,1,0.8043,"9","6"
1,18,1,"practice",18,0,"6",0,0,1,0.6258,"9","6"
1,19,1,"practice",19,1,"4",12,1,1,0.7295,"9","6"
1,20,1,"practice",20,1,"2",8,1,1,0.7461,"9","6"
1,21,1,"practice",21,0,"3",0,0,1,0.7324,"9","6"
1,22,1,"practice",22,0,"6",0,0,1,1.3695,"9","6"
1,23,1,"practice",23,0,"3",0,0,1,0.486,"9","6"
1,24,1,"practice",24,1,"2",4,1,1,0.631,"9","6"
1,25,1,"practice",25,1,"2",12,1,1,0.7881,"9","6"
1,26,1,"practice",26,0,"4",0,0,1,0.6161,"9","6"
1,27,1,"practice",27,1,"6",11,0,0,0.8466,"9","6"
1,28,1,"practice",28,1,"6",5,1,1,0.6504,"9","6"
1,29,1,"practice",29,0,"4",0,0,1,0.5959,"9","6"
1,30,1,"practice",30,1,"4",10,1,1,1.1417,"9","6"
1,31,1,"experiment",1,1,"6",10,1,1,1.7886,"9","6"
1,32,1,"experiment",2,1,"3",3,1,1,0.6967,"9","6"
1,33,1,"experiment",3,0,"3",0,0,1,0.7543,"9","6"
1,34,1,"experiment",4,1,"4",10,1,1,1.3409,"9","6"
1,35,1,"experiment",5,1,"4",3,1,1,0.9779,"9","6"
1,36,1,"experiment",6,0,"2",0,0,1,0.6857,"9","6"
1,37,1,"experiment",7,0,"4",0,0,1,0.8365,"9","6"
1,38,1,"experiment",8,1,"3",10,1,1,0.7479,"9","6"
1,39,1,"experiment",9,0,"4",0,0,1,0.9254,"9","6"
1,40,1,"experiment",10,1,"2",12,1,1,0.6417,"9","6"
1,41,1,"experiment",11,0,"4",0,0,1,0.5808,"9","6"
1,42,1,"experiment",12,1,"6",11,1,1,0.5658,"9","6"
1,43,1,"experiment",13,1,"2",11,1,1,0.6296,"9","6"
1,44,1,"experiment",14,1,"2",2,1,1,0.4988,"9","6"
1,45,1,"experiment",15,0,"4",0,0,1,0.7137,"9","6"
1,46,1,"experiment",16,1,"2",10,1,1,0.5252,"9","6"
1,47,1,"experiment",17,1,"2",6,1,1,0.7404,"9","6"
1,48,1,"experiment",18,0,"3",0,0,1,0.6061,"9","6"
1,49,1,"experiment",19,0,"3",0,0,1,0.5465,"9","6"
1,50,1,"experiment",20,1,"3",11,1,1,0.5816,"9","6"
1,51,1,"experiment",21,0,"2",0,0,1,0.6263,"9","6"
1,52,1,"experiment",22,1,"3",8,1,1,1.429,"9","6"
1,53,1,"experiment",23,1,"4",10,1,1,0.6401,"9","6"
1,54,1,"experiment",24,0,"3",0,0,1,0.6587,"9","6"
1,55,1,"experiment",25,0,"3",0,0,1,0.6192,"9","6"
1,56,1,"experiment",26,0,"2",0,0,1,0.6399,"9","6"
1,57,1,"experiment",27,0,"2",0,0,1,0.5424,"9","6"
1,58,1,"experiment",28,0,"6",0,0,1,0.5829,"9","6"
1,59,1,"experiment",29,0,"6",0,0,1,0.5175,"9","6"
1,60,1,"experiment",30,1,"6",8,1,1,0.7362,"9","6"
1,61,1,"experiment",31,1,"3",2,1,1,0.6377,"9","6"
1,62,1,"experiment",32,1,"4",10,1,1,0.4978,"9","6"
1,63,1,"experiment",33,1,"2",4,1,1,0.4486,"9","6"
1,64,1,"experiment",34,1,"6",12,1,1,0.4941,"9","6"
1,65,1,"experiment",35,1,"6",7,1,1,0.8105,"9","6"
1,66,1,"experiment",36,1,"3",12,1,1,0.5009,"9","6"
1,67,1,"experiment",37,1,"2",4,1,1,0.5241,"9","6"
1,68,1,"experiment",38,0,"6",0,0,1,0.859,"9","6"
1,69,1,"experiment",39,0,"3",0,0,1,0.5954,"9","6"
1,70,1,"experiment",40,1,"3",1,1,1,0.5316,"9","6"
1,71,1,"experiment",41,1,"4",4,1,1,1.4618,"9","6"
1,72,1,"experiment",42,1,"4",1,1,1,0.6217,"9","6"
1,73,1,"experiment",43,0,"4",0,0,1,0.8112,"9","6"
1,74,1,"experiment",44,1,"2",1,1,1,0.5277,"9","6"
1,75,1,"experiment",45,1,"3",4,1,1,0.5623,"9","6"
1,76,1,"experiment",46,1,"6",9,1,1,0.8503,"9","6"
1,77,1,"experiment",47,0,"4",0,0,1,0.7896,"9","6"
1,78,1,"experiment",48,0,"4",0,0,1,0.616,"9","6"
1,79,1,"experiment",49,1,"2",11,1,1,0.5089,"9","6"
1,80,1,"experiment",50,1,"2",10,1,1,0.631,"9","6"
1,81,1,"experiment",51,1,"2",12,1,1,0.491,"9","6"
1,82,1,"experiment",52,1,"6",5,1,1,0.5946,"9","6"
1,83,1,"experiment",53,0,"4",0,0,1,0.8033,"9","6"
1,84,1,"experiment",54,1,"4",1,1,1,0.5067,"9","6"
1,85,1,"experiment",55,1,"4",4,1,1,0.9471,"9","6"
1,86,1,"experiment",56,1,"3",12,1,1,0.533,"9","6"
1,87,1,"experiment",57,1,"6",8,0,0,0.7199,"9","6"
1,88,1,"experiment",58,1,"2",11,1,1,0.6202,"9","6"
1,89,1,"experiment",59,1,"3",3,1,1,0.5696,"9","6"
1,90,1,"experiment",60,1,"6",7,-1,0,2.0041,"9","6"
1,91,1,"experiment",61,0,"4",0,1,0,1.3232,"9","6"
1,92,1,"experiment",62,0,"2",0,0,1,0.9901,"9","6"
1,93,1,"experiment",63,0,"2",0,0,1,0.627,"9","6"
1,94,1,"experiment",64,1,"2",11,1,1,0.6417,"9","6"
1,95,1,"experiment",65,1,"3",1,1,1,0.8376,"9","6"
1,96,1,"experiment",66,0,"6",0,0,1,0.8067,"9","6"
1,97,1,"experiment",67,0,"4",0,0,1,0.6423,"9","6"
1,98,1,"experiment",68,1,"3",4,1,1,0.6101,"9","6"
1,99,1,"experiment",69,1,"6",7,1,1,0.8971,"9","6"
1,100,1,"experiment",70,1,"4",11,1,1,0.6295,"9","6"
1,101,1,"experiment",71,1,"2",9,1,1,0.6396,"9","6"
1,102,1,"experiment",72,0,"2",0,0,1,0.6754,"9","6"
1,103,1,"experiment",73,0,"3",0,0,1,0.5785,"9","6"
1,104,1,"experiment",74,1,"6",1,1,1,0.5912,"9","6"
1,105,1,"experiment",75,1,"3",8,1,1,0.547,"9","6"
1,106,1,"experiment",76,1,"2",1,1,1,0.6003,"9","6"
1,107,1,"experiment",77,0,"3",0,0,1,0.5859,"9","6"
1,108,1,"experiment",78,1,"6",8,1,1,1.1051,"9","6"
1,109,1,"experiment",79,1,"4",4,1,1,0.5992,"9","6"
1,110,1,"experiment",80,1,"2",6,1,1,0.5277,"9","6"
1,111,1,"experiment",81,1,"2",10,1,1,0.5384,"9","6"
1,112,1,"experiment",82,0,"2",0,0,1,0.6432,"9","6"
1,113,1,"experiment",83,0,"4",0,0,1,0.779,"9","6"
1,114,1,"experiment",84,1,"2",11,1,1,0.5753,"9","6"
1,115,1,"experiment",85,1,"6",5,1,1,0.9055,"9","6"
1,116,1,"experiment",86,1,"2",4,1,1,0.5414,"9","6"
1,117,1,"experiment",87,1,"2",1,1,1,0.529,"9","6"
1,118,1,"experiment",88,0,"4",0,0,1,0.6744,"9","6"
1,119,1,"experiment",89,0,"2",0,0,1,0.6078,"9","6"
1,120,1,"experiment",90,1,"3",4,1,1,0.6402,"9","6"
1,121,1,"experiment",91,1,"6",10,1,1,0.997,"9","6"
1,122,1,"experiment",92,0,"4",0,0,1,0.7575,"9","6"
1,123,1,"experiment",93,0,"4",0,0,1,0.7028,"9","6"
1,124,1,"experiment",94,0,"4",0,0,1,0.98,"9","6"
1,125,1,"experiment",95,0,"2",0,0,1,0.6849,"9","6"
1,126,1,"experiment",96,1,"4",12,1,1,0.6926,"9","6"
1,127,1,"experiment",97,0,"6",0,0,1,0.8326,"9","6"
1,128,1,"experiment",98,0,"2",0,0,1,1.324,"9","6"
1,129,1,"experiment",99,0,"6",0,0,1,0.6166,"9","6"
1,130,1,"experiment",100,0,"3",0,0,1,0.97,"9","6"
1,131,2,"practice",1,1,"6",2,1,1,1.7271,"6","9"
1,132,2,"practice",2,1,"4",8,1,1,0.8962,"6","9"
1,133,2,"practice",3,1,"6",1,1,1,0.6142,"6","9"
1,134,2,"practice",4,1,"6",10,1,1,0.6178,"6","9"
1,135,2,"practice",5,1,"3",5,1,1,0.6765,"6","9"
1,136,2,"practice",6,1,"3",7,1,1,0.7198,"6","9"
1,137,2,"practice",7,0,"6",0,0,1,0.6011,"6","9"
1,138,2,"practice",8,0,"4",0,0,1,0.695,"6","9"
1,139,2,"practice",9,0,"6",0,0,1,0.5172,"6","9"
1,140,2,"practice",10,1,"4",2,1,1,0.6711,"6","9"
1,141,2,"practice",11,1,"2",7,1,1,1.2223,"6","9"
1,142,2,"practice",12,0,"6",0,0,1,0.7207,"6","9"
1,143,2,"practice",13,1,"6",5,0,0,0.5602,"6","9"
1,144,2,"practice",14,0,"6",0,1,0,0.16,"6","9"
1,145,2,"practice",15,0,"3",0,0,1,0.694,"6","9"
1,146,2,"practice",16,1,"2",4,1,1,0.7773,"6","9"
1,147,2,"practice",17,1,"2",3,1,1,0.7556,"6","9"
1,148,2,"practice",18,1,"4",7,1,1,1.6381,"6","9"
1,149,2,"practice",19,1,"4",2,1,1,0.807,"6","9"
1,150,2,"practice",20,1,"6",5,0,0,0.833,"6","9"
1,151,2,"practice",21,1,"6",9,-1,0,2.0061,"6","9"
1,152,2,"practice",22,1,"3",4,1,1,1.6808,"6","9"
1,153,2,"practice",23,1,"4",5,1,1,0.6917,"6","9"
1,154,2,"practice",24,0,"3",0,0,1,0.7602,"6","9"
1,155,2,"practice",25,0,"3",0,0,1,0.8323,"6","9"
1,156,2,"practice",26,0,"6",0,0,1,0.586,"6","9"
1,157,2,"practice",27,1,"3",5,1,1,1.03,"6","9"
1,158,2,"practice",28,0,"6",0,0,1,0.6876,"6","9"
1,159,2,"practice",29,0,"4",0,0,1,0.6334,"6","9"
1,160,2,"practice",30,0,"4",0,0,1,0.5317,"6","9"
1,161,2,"experiment",1,1,"6",7,1,1,1.0834,"6","9"
1,162,2,"experiment",2,1,"3",2,1,1,0.5874,"6","9"
1,163,2,"experiment",3,0,"2",0,0,1,0.6359,"6","9"
1,164,2,"experiment",4,1,"3",7,1,1,0.7745,"6","9"
1,165,2,"experiment",5,1,"6",11,1,1,0.6147,"6","9"
1,166,2,"experiment",6,0,"4",0,0,1,0.6413,"6","9"
1,167,2,"experiment",7,1,"4",10,1,1,0.7339,"6","9"
1,168,2,"experiment",8,1,"3",12,1,1,0.6927,"6","9"
1,169,2,"experiment",9,1,"2",6,1,1,0.5902,"6","9"
1,170,2,"experiment",10,1,"2",2,1,1,0.5552,"6","9"
1,171,2,"experiment",11,0,"2",0,0,1,0.6569,"6","9"
1,172,2,"experiment",12,1,"4",9,1,1,0.6179,"6","9"
1,173,2,"experiment",13,0,"4",0,0,1,0.6656,"6","9"
1,174,2,"experiment",14,1,"3",9,1,1,0.483,"6","9"
1,175,2,"experiment",15,1,"4",12,1,1,0.6486,"6","9"
1,176,2,"experiment",16,0,"3",0,0,1,0.6722,"6","9"
1,177,2,"experiment",17,1,"2",9,1,1,1.3888,"6","9"
1,178,2,"experiment",18,1,"6",5,0,0,0.7726,"6","9"
1,179,2,"experiment",19,1,"2",7,-1,0,2.0052,"6","9"
1,180,2,"experiment",20,0,"3",0,0,1,0.6317,"6","9"
1,181,2,"experiment",21,0,"4",0,0,1,0.9084,"6","9"
1,182,2,"experiment",22,0,"2",0,0,1,0.587,"6","9"
1,183,2,"experiment",23,0,"2",0,0,1,0.5056,"6","9"
1,184,2,"experiment",24,0,"2",0,0,1,0.3806,"6","9"
1,185,2,"experiment",25,1,"6",1,0,0,0.2681,"6","9"
1,186,2,"experiment",26,0,"4",0,0,1,1.1805,"6","9"
1,187,2,"experiment",27,1,"2",2,1,1,0.7351,"6","9"
1,188,2,"experiment",28,0,"2",0,0,1,0.7195,"6","9"
1,189,2,"experiment",29,0,"6",0,0,1,0.948,"6","9"
1,190,2,"experiment",30,0,"4",0,0,1,0.6902,"6","9"
1,191,2,"experiment",31,1,"2",2,1,1,0.5554,"6","9"
1,192,2,"experiment",32,0,"6",0,0,1,0.6514,"6","9"
1,193,2,"experiment",33,1,"3",1,1,1,0.5655,"6","9"
1,194,2,"experiment",34,1,"6",11,1,1,0.5839,"6","9"
1,195,2,"experiment",35,0,"6",0,0,1,0.5315,"6","9"
1,196,2,"experiment",36,1,"4",4,1,1,0.8724,"6","9"
1,197,2,"experiment",37,0,"2",0,0,1,0.7614,"6","9"
1,198,2,"experiment",38,0,"4",0,0,1,0.7291,"6","9"
1,199,2,"experiment",39,1,"3",3,1,1,0.5246,"6","9"
1,200,2,"experiment",40,1,"2",8,1,1,0.5752,"6","9"
1,201,2,"experiment",41,0,"3",0,0,1,0.6717,"6","9"
1,202,2,"experiment",42,0,"6",0,0,1,0.8429,"6","9"
1,203,2,"experiment",43,1,"6",1,1,1,0.4863,"6","9"
1,204,2,"experiment",44,1,"2",5,1,1,0.9825,"6","9"
1,205,2,"experiment",45,0,"2",0,0,1,0.7069,"6","9"
1,206,2,"experiment",46,1,"3",11,1,1,0.6365,"6","9"
1,207,2,"experiment",47,0,"2",0,0,1,0.6131,"6","9"
1,208,2,"experiment",48,0,"6",0,0,1,0.5519,"6","9"
1,209,2,"experiment",49,0,"6",0,0,1,0.5659,"6","9"
1,210,2,"experiment",50,0,"4",0,0,1,0.591,"6","9"
1,211,2,"experiment",51,0,"3",0,0,1,0.5683,"6","9"
1,212,2,"experiment",52,1,"4",4,1,1,1.362,"6","9"
1,213,2,"experiment",53,0,"4",0,0,1,0.576,"6","9"
1,214,2,"experiment",54,0,"2",0,0,1,0.6993,"6","9"
1,215,2,"experiment",55,0,"6",0,0,1,0.5542,"6","9"
1,216,2,"experiment",56,0,"6",0,0,1,0.4361,"6","9"
1,217,2,"experiment",57,0,"3",0,0,1,0.848,"6","9"
1,218,2,"experiment",58,1,"4",11,1,1,0.7195,"6","9"
1,219,2,"experiment",59,1,"6",12,1,1,0.6301,"6","9"
1,220,2,"experiment",60,1,"2",9,1,1,0.7188,"6","9"
1,221,2,"experiment",61,0,"2",0,0,1,0.6608,"6","9"
1,222,2,"experiment",62,0,"2",0,0,1,0.7712,"6","9"
1,223,2,"experiment",63,0,"2",0,0,1,0.528,"6","9"
1,224,2,"experiment",64,0,"3",0,0,1,0.4649,"6","9"
1,225,2,"experiment",65,1,"2",6,1,1,0.7995,"6","9"
1,226,2,"experiment",66,0,"3",0,0,1,0.6612,"6","9"
1,227,2,"experiment",67,1,"2",12,1,1,1.1844,"6","9"
1,228,2,"experiment",68,0,"2",0,0,1,0.6035,"6","9"
1,229,2,"experiment",69,0,"6",0,0,1,0.6076,"6","9"
1,230,2,"experiment",70,0,"3",0,0,1,0.5629,"6","9"
1,231,2,"experiment",71,1,"4",3,0,0,0.747,"6","9"
1,232,2,"experiment",72,0,"6",0,0,1,0.8305,"6","9"
1,233,2,"experiment",73,0,"6",0,0,1,0.5657,"6","9"
1,234,2,"experiment",74,0,"2",0,0,1,0.7902,"6","9"
1,235,2,"experiment",75,1,"3",3,1,1,0.6462,"6","9"
1,236,2,"experiment",76,1,"4",6,0,0,0.658,"6","9"
1,237,2,"experiment",77,1,"3",3,1,1,0.4721,"6","9"
1,238,2,"experiment",78,1,"3",11,1,1,1.1141,"6","9"
1,239,2,"experiment",79,1,"6",1,1,1,0.4994,"6","9"
1,240,2,"experiment",80,1,"2",1,1,1,0.3893,"6","9"
1,241,2,"experiment",81,0,"4",0,0,1,0.6732,"6","9"
1,242,2,"experiment",82,1,"2",4,1,1,0.3991,"6","9"
1,243,2,"experiment",83,0,"6",0,0,1,0.6341,"6","9"
1,244,2,"experiment",84,1,"2",9,1,1,0.9331,"6","9"
1,245,2,"experiment",85,0,"3",0,0,1,0.657,"6","9"
1,246,2,"experiment",86,0,"4",0,0,1,0.527,"6","9"
1,247,2,"experiment",87,1,"2",6,1,1,0.8246,"6","9"
1,248,2,"experiment",88,0,"6",0,0,1,0.6202,"6","9"
1,249,2,"experiment",89,1,"4",7,1,1,0.7634,"6","9"
1,250,2,"experiment",90,0,"4",0,0,1,0.7897,"6","9"
1,251,2,"experiment",91,0,"4",0,0,1,0.6451,"6","9"
1,252,2,"experiment",92,0,"2",0,0,1,0.4935,"6","9"
1,253,2,"experiment",93,1,"3",9,1,1,0.8966,"6","9"
1,254,2,"experiment",94,1,"6",10,-1,0,2.0041,"6","9"
1,255,2,"experiment",95,0,"4",0,0,1,0.6742,"6","9"
1,256,2,"experiment",96,1,"6",5,1,1,0.9697,"6","9"
1,257,2,"experiment",97,1,"3",8,1,1,0.5815,"6","9"
1,258,2,"experiment",98,0,"3",0,0,1,0.7869,"6","9"
1,259,2,"experiment",99,1,"4",11,1,1,0.5799,"6","9"
1,260,2,"experiment",100,1,"4",5,1,1,0.8203,"6","9"
1,261,3,"practice",1,1,"2",8,1,1,1.0176,"6","9"
1,262,3,"practice",2,0,"4",0,0,1,0.6646,"6","9"
1,263,3,"practice",3,1,"4",2,1,1,0.6135,"6","9"
1,264,3,"practice",4,1,"6",6,0,0,0.5928,"6","9"
1,265,3,"practice",5,0,"4",0,0,1,0.6333,"6","9"
1,266,3,"practice",6,0,"4",0,0,1,0.5275,"6","9"
1,267,3,"practice",7,0,"3",0,0,1,0.5385,"6","9"
1,268,3,"practice",8,1,"3",7,1,1,0.7232,"6","9"
1,269,3,"practice",9,1,"2",10,1,1,0.6325,"6","9"
1,270,3,"practice",10,0,"4",0,0,1,0.6005,"6","9"
1,271,3,"practice",11,1,"3",12,1,1,0.5848,"6","9"
1,272,3,"practice",12,1,"3",6,1,1,0.7058,"6","9"
1,273,3,"practice",13,0,"6",0,0,1,1.5929,"6","9"
1,274,3,"practice",14,1,"3",6,1,1,0.5916,"6","9"
1,275,3,"practice",15,1,"4",5,1,1,0.6869,"6","9"
1,276,3,"practice",16,1,"4",7,1,1,0.6632,"6","9"
1,277,3,"practice",17,0,"6",0,1,0,0.4108,"6","9"
1,278,3,"practice",18,1,"6",1,1,1,0.753,"6","9"
1,279,3,"practice",19,0,"2",0,0,1,0.7574,"6","9"
1,280,3,"practice",20,1,"4",10,1,1,0.7303,"6","9"
1,281,3,"practice",21,0,"2",0,1,0,0.8025,"6","9"
1,282,3,"practice",22,0,"4",0,0,1,0.8819,"6","9"
1,283,3,"practice",23,1,"6",3,1,1,0.7641,"6","9"
1,284,3,"practice",24,1,"2",9,0,0,0.6344,"6","9"
1,285,3,"practice",25,0,"4",0,0,1,0.5271,"6","9"
1,286,3,"practice",26,0,"3",0,0,1,0.6343,"6","9"
1,287,3,"practice",27,1,"3",1,1,1,0.5608,"6","9"
1,288,3,"practice",28,0,"2",0,0,1,0.8709,"6","9"
1,289,3,"practice",29,0,"3",0,0,1,1.5246,"6","9"
1,290,3,"practice",30,1,"4",10,1,1,0.6983,"6","9"
1,291,3,"experiment",1,0,"6",0,0,1,0.7223,"6","9"
1,292,3,"experiment",2,0,"3",0,0,1,0.9004,"6","9"
1,293,3,"experiment",3,0,"3",0,0,1,0.5003,"6","9"
1,294,3,"experiment",4,1,"2",5,1,1,0.6755,"6","9"
1,295,3,"experiment",5,1,"4",12,1,1,0.4293,"6","9"
1,296,3,"experiment",6,1,"4",1,1,1,0.3748,"6","9"
1,297,3,"experiment",7,1,"3",9,1,1,0.6398,"6","9"
1,298,3,"experiment",8,0,"6",0,0,1,1.8366,"6","9"
1,299,3,"experiment",9,1,"3",10,1,1,0.7305,"6","9"
1,300,3,"experiment",10,0,"4",0,0,1,0.6897,"6","9"
1,301,3,"experiment",11,0,"4",0,0,1,0.3667,"6","9"
1,302,3,"experiment",12,1,"4",11,1,1,0.5555,"6","9"
1,303,3,"experiment",13,0,"4",0,0,1,0.8328,"6","9"
1,304,3,"experiment",14,1,"2",9,1,1,0.5071,"6","9"
1,305,3,"experiment",15,0,"2",0,0,1,0.5084,"6","9"
1,306,3,"experiment",16,0,"6",0,0,1,0.581,"6","9"
1,307,3,"experiment",17,1,"6",3,1,1,0.849,"6","9"
1,308,3,"experiment",18,0,"3",0,-1,0,2.0024,"6","9"
1,309,3,"experiment",19,0,"2",0,-1,0,2.0005,"6","9"
1,310,3,"experiment",20,1,"2",12,1,1,0.6654,"6","9"
1,311,3,"experiment",21,1,"3",3,1,1,0.8567,"6","9"
1,312,3,"experiment",22,0,"3",0,0,1,0.5724,"6","9"
1,313,3,"experiment",23,1,"2",6,1,1,0.6069,"6","9"
1,314,3,"experiment",24,0,"6",0,0,1,0.5172,"6","9"
1,315,3,"experiment",25,0,"4",0,0,1,1.2482,"6","9"
1,316,3,"experiment",26,1,"3",5,1,1,0.5619,"6","9"
1,317,3,"experiment",27,1,"2",3,1,1,0.4781,"6","9"
1,318,3,"experiment",28,1,"2",8,1,1,0.5458,"6","9"
1,319,3,"experiment",29,0,"6",0,0,1,0.9514,"6","9"
1,320,3,"experiment",30,1,"3",1,1,1,0.4882,"6","9"
1,321,3,"experiment",31,1,"6",7,1,1,1.4179,"6","9"
1,322,3,"experiment",32,1,"3",6,1,1,0.8407,"6","9"
1,323,3,"experiment",33,0,"3",0,0,1,0.7904,"6","9"
1,324,3,"experiment",34,0,"6",0,0,1,1.1398,"6","9"
1,325,3,"experiment",35,1,"6",5,1,1,0.7659,"6","9"
1,326,3,"experiment",36,0,"4",0,0,1,1.7833,"6","9"
1,327,3,"experiment",37,0,"4",0,0,1,0.7557,"6","9"
1,328,3,"experiment",38,0,"6",0,0,1,0.471,"6","9"
1,329,3,"experiment",39,1,"4",5,1,1,0.7402,"6","9"
1,330,3,"experiment",40,0,"2",0,-1,0,2.0049,"6","9"
1,331,3,"experiment",41,0,"6",0,0,1,1.3583,"6","9"
1,332,3,"experiment",42,0,"3",0,0,1,0.527,"6","9"
1,333,3,"experiment",43,1,"3",12,1,1,0.5244,"6","9"
1,334,3,"experiment",44,0,"6",0,0,1,0.743,"6","9"
1,335,3,"experiment",45,1,"6",1,1,1,0.651,"6","9"
1,336,3,"experiment",46,1,"6",2,1,1,1.0417,"6","9"
1,337,3,"experiment",47,1,"3",11,-1,0,2.0059,"6","9"
1,338,3,"experiment",48,1,"6",8,0,0,0.7655,"6","9"
1,339,3,"experiment",49,1,"6",5,0,0,1.2863,"6","9"
1,340,3,"experiment",50,1,"4",8,0,0,0.925,"6","9"
1,341,3,"experiment",51,1,"3",9,1,1,0.8155,"6","9"
1,342,3,"experiment",52,0,"2",0,1,0,0.5536,"6","9"
1,343,3,"experiment",53,0,"4",0,1,0,0.4755,"6","9"
1,344,3,"experiment",54,0,"3",0,1,0,1.0069,"6","9"
1,345,3,"experiment",55,0,"2",0,1,0,0.3482,"6","9"
1,346,3,"experiment",56,1,"2",4,1,1,0.3168,"6","9"
1,347,3,"experiment",57,0,"6",0,0,1,0.5868,"6","9"
1,348,3,"experiment",58,0,"6",0,0,1,0.9322,"6","9"
1,349,3,"experiment",59,1,"6",10,1,1,0.7249,"6","9"
1,350,3,"experiment",60,1,"6",4,1,1,0.8605,"6","9"
1,351,3,"experiment",61,1,"3",11,1,1,0.7623,"6","9"
1,352,3,"experiment",62,1,"3",11,-1,0,2.0048,"6","9"
1,353,3,"experiment",63,0,"3",0,0,1,0.5912,"6","9"
1,354,3,"experiment",64,1,"6",3,1,1,0.9467,"6","9"
1,355,3,"experiment",65,0,"2",0,0,1,0.7276,"6","9"
1,356,3,"experiment",66,1,"6",11,1,1,0.6577,"6","9"
1,357,3,"experiment",67,0,"2",0,0,1,0.2578,"6","9"
1,358,3,"experiment",68,1,"6",2,1,1,0.5495,"6","9"
1,359,3,"experiment",69,1,"3",2,1,1,0.4209,"6","9"
1,360,3,"experiment",70,0,"4",0,0,1,0.6239,"6","9"
1,361,3,"experiment",71,1,"3",1,1,1,0.4528,"6","9"
1,362,3,"experiment",72,0,"3",0,0,1,0.5435,"6","9"
1,363,3,"experiment",73,1,"6",6,1,1,0.6337,"6","9"
1,364,3,"experiment",74,0,"3",0,1,0,0.7067,"6","9"
1,365,3,"experiment",75,0,"3",0,0,1,0.6658,"6","9"
1,366,3,"experiment",76,0,"2",0,0,1,0.5994,"6","9"
1,367,3,"experiment",77,0,"2",0,0,1,0.4909,"6","9"
1,368,3,"experiment",78,1,"3",2,1,1,1.0931,"6","9"
1,369,3,"experiment",79,1,"4",7,0,0,1.0513,"6","9"
1,370,3,"experiment",80,1,"3",3,1,1,1.0581,"6","9"
1,371,3,"experiment",81,0,"4",0,1,0,1.0523,"6","9"
1,372,3,"experiment",82,0,"2",0,0,1,1.2842,"6","9"
1,373,3,"experiment",83,1,"2",8,1,1,0.6896,"6","9"
1,374,3,"experiment",84,0,"6",0,0,1,0.8742,"6","9"
1,375,3,"experiment",85,1,"3",12,1,1,0.7325,"6","9"
1,376,3,"experiment",86,0,"2",0,0,1,0.9574,"6","9"
1,377,3,"experiment",87,0,"2",0,0,1,0.5223,"6","9"
1,378,3,"experiment",88,0,"6",0,0,1,0.5637,"6","9"
1,379,3,"experiment",89,1,"4",6,1,1,0.8189,"6","9"
1,380,3,"experiment",90,1,"3",10,1,1,0.5731,"6","9"
1,381,3,"experiment",91,1,"2",1,1,1,0.4232,"6","9"
1,382,3,"experiment",92,0,"6",0,0,1,0.6209,"6","9"
1,383,3,"experiment",93,0,"2",0,0,1,0.6763,"6","9"
1,384,3,"experiment",94,1,"2",12,0,0,0.4317,"6","9"
1,385,3,"experiment",95,0,"6",0,0,1,0.8092,"6","9"
1,386,3,"experiment",96,0,"2",0,-1,0,2.002,"6","9"
1,387,3,"experiment",97,0,"6",0,0,1,1.0285,"6","9"
1,388,3,"experiment",98,0,"3",0,0,1,0.5735,"6","9"
1,389,3,"experiment",99,0,"6",0,0,1,0.3942,"6","9"
1,390,3,"experiment",100,0,"4",0,0,1,0.4987,"6","9"
1,391,4,"practice",1,0,"4",0,0,1,1.0425,"9","6"
1,392,4,"practice",2,1,"6",7,1,1,0.7683,"9","6"
1,393,4,"practice",3,0,"2",0,0,1,1.7667,"9","6"
1,394,4,"practice",4,1,"4",3,1,1,0.6831,"9","6"
1,395,4,"practice",5,0,"4",0,0,1,0.6215,"9","6"
1,396,4,"practice",6,0,"6",0,0,1,1.4953,"9","6"
1,397,4,"practice",7,1,"4",6,0,0,0.9911,"9","6"
1,398,4,"practice",8,1,"4",12,1,1,1.6314,"9","6"
1,399,4,"practice",9,1,"2",9,1,1,0.4967,"9","6"
1,400,4,"practice",10,1,"6",11,1,1,0.7068,"9","6"
1,401,4,"practice",11,1,"3",2,1,1,0.539,"9","6"
1,402,4,"practice",12,0,"2",0,1,0,0.4842,"9","6"
1,403,4,"practice",13,0,"4",0,-1,0,2.0004,"9","6"
1,404,4,"practice",14,1,"2",8,1,1,0.9787,"9","6"
1,405,4,"practice",15,1,"4",8,1,1,0.8351,"9","6"
1,406,4,"practice",16,1,"6",11,1,1,1.3839,"9","6"
1,407,4,"practice",17,0,"2",0,1,0,0.5034,"9","6"
1,408,4,"practice",18,0,"6",0,0,1,0.9468,"9","6"
1,409,4,"practice",19,1,"2",12,1,1,0.7525,"9","6"
1,410,4,"practice",20,0,"4",0,0,1,0.8779,"9","6"
1,411,4,"practice",21,1,"3",12,0,0,1.597,"9","6"
1,412,4,"practice",22,0,"6",0,0,1,0.7899,"9","6"
1,413,4,"practice",23,1,"2",8,1,1,0.6478,"9","6"
1,414,4,"practice",24,1,"4",1,-1,0,2.0039,"9","6"
1,415,4,"practice",25,0,"6",0,0,1,1.5585,"9","6"
1,416,4,"practice",26,0,"3",0,0,1,0.6308,"9","6"
1,417,4,"practice",27,0,"6",0,0,1,1.1738,"9","6"
1,418,4,"practice",28,0,"3",0,0,1,0.5154,"9","6"
1,419,4,"practice",29,0,"3",0,0,1,0.4721,"9","6"
1,420,4,"practice",30,1,"3",5,0,0,0.4021,"9","6"
1,421,4,"experiment",1,1,"4",1,1,1,0.8166,"9","6"
1,422,4,"experiment",2,1,"3",11,1,1,0.4798,"9","6"
1,423,4,"experiment",3,0,"4",0,0,1,0.7132,"9","6"
1,424,4,"experiment",4,1,"4",2,1,1,0.4992,"9","6"
1,425,4,"experiment",5,0,"3",0,0,1,0.6803,"9","6"
1,426,4,"experiment",6,1,"6",3,-1,0,2.0056,"9","6"
1,427,4,"experiment",7,1,"4",6,1,1,1.1125,"9","6"
1,428,4,"experiment",8,0,"2",0,0,1,0.7186,"9","6"
1,429,4,"experiment",9,1,"2",4,1,1,0.4552,"9","6"
1,430,4,"experiment",10,1,"2",12,1,1,0.6042,"9","6"
1,431,4,"experiment",11,0,"4",0,-1,0,2.0063,"9","6"
1,432,4,"experiment",12,0,"3",0,0,1,1.2872,"9","6"
1,433,4,"experiment",13,0,"3",0,-1,0,2.0055,"9","6"
1,434,4,"experiment",14,0,"4",0,0,1,1.3407,"9","6"
1,435,4,"experiment",15,1,"6",5,1,1,0.5647,"9","6"
1,436,4,"experiment",16,1,"3",4,1,1,0.4915,"9","6"
1,437,4,"experiment",17,0,"2",0,0,1,0.6315,"9","6"
1,438,4,"experiment",18,0,"4",0,0,1,0.6893,"9","6"
1,439,4,"experiment",19,0,"3",0,0,1,0.5459,"9","6"
1,440,4,"experiment",20,1,"4",5,1,1,0.7928,"9","6"
1,441,4,"experiment",21,0,"4",0,-1,0,2.0044,"9","6"
1,442,4,"experiment",22,1,"3",2,1,1,0.6179,"9","6"
1,443,4,"experiment",23,0,"2",0,0,1,1.9055,"9","6"
1,444,4,"experiment",24,1,"2",12,1,1,1.8702,"9","6"
1,445,4,"experiment",25,0,"3",0,0,1,0.9454,"9","6"
1,446,4,"experiment",26,0,"6",0,0,1,0.7045,"9","6"
1,447,4,"experiment",27,0,"2",0,0,1,0.4788,"9","6"
1,448,4,"experiment",28,1,"6",8,1,1,1.0759,"9","6"
1,449,4,"experiment",29,1,"3",5,0,0,0.599,"9","6"
1,450,4,"experiment",30,0,"4",0,1,0,0.7455,"9","6"
1,451,4,"experiment",31,1,"6",2,1,1,0.623,"9","6"
1,452,4,"experiment",32,1,"4",1,1,1,0.8547,"9","6"
1,453,4,"experiment",33,1,"3",1,1,1,1.1294,"9","6"
1,454,4,"experiment",34,0,"4",0,-1,0,2.0012,"9","6"
1,455,4,"experiment",35,1,"6",6,1,1,1.3889,"9","6"
1,456,4,"experiment",36,0,"4",0,0,1,1.4601,"9","6"
1,457,4,"experiment",37,0,"3",0,0,1,0.9873,"9","6"
1,458,4,"experiment",38,0,"2",0,0,1,0.4711,"9","6"
1,459,4,"experiment",39,1,"3",11,1,1,0.6936,"9","6"
1,460,4,"experiment",40,0,"3",0,0,1,1.2367,"9","6"
1,461,4,"experiment",41,1,"6",9,1,1,0.6869,"9","6"
1,462,4,"experiment",42,1,"4",4,0,0,0.7773,"9","6"
1,463,4,"experiment",43,1,"3",10,-1,0,2.006,"9","6"
1,464,4,"experiment",44,1,"2",10,1,1,1.5035,"9","6"
1,465,4,"experiment",45,0,"4",0,1,0,1.772,"9","6"
1,466,4,"experiment",46,1,"6",6,1,1,1.3531,"9","6"
1,467,4,"experiment",47,0,"2",0,0,1,0.8595,"9","6"
1,468,4,"experiment",48,1,"2",5,1,1,0.8659,"9","6"
1,469,4,"experiment",49,0,"4",0,0,1,0.8054,"9","6"
1,470,4,"experiment",50,1,"3",6,1,1,0.5144,"9","6"
1,471,4,"experiment",51,0,"3",0,0,1,0.6454,"9","6"
1,472,4,"experiment",52,1,"3",6,1,1,0.6608,"9","6"
1,473,4,"experiment",53,0,"6",0,-1,0,2.0055,"9","6"
1,474,4,"experiment",54,0,"6",0,-1,0,1.238,"9","6"
1,475,4,"experiment",55,1,"3",5,0,0,1.3185,"9","6"
1,476,4,"experiment",56,0,"4",0,0,1,1.2076,"9","6"
1,477,4,"experiment",57,1,"3",11,1,1,0.5461,"9","6"
1,478,4,"experiment",58,1,"4",6,1,1,0.6037,"9","6"
1,479,4,"experiment",59,1,"4",8,1,1,0.7551,"9","6"
1,480,4,"experiment",60,1,"3",6,-1,0,2.004,"9","6"
1,481,4,"experiment",61,0,"3",0,-1,0,0.627,"9","6"
1,482,4,"experiment",62,1,"2",12,-1,0,2.0024,"9","6"
1,483,4,"experiment",63,0,"3",0,0,1,0.88,"9","6"
1,484,4,"experiment",64,1,"4",10,1,1,0.5664,"9","6"
1,485,4,"experiment",65,1,"2",4,0,0,0.7644,"9","6"
1,486,4,"experiment",66,0,"2",0,0,1,0.9678,"9","6"
1,487,4,"experiment",67,0,"2",0,0,1,0.6592,"9","6"
1,488,4,"experiment",68,0,"2",0,1,0,1.1413,"9","6"
1,489,4,"experiment",69,0,"2",0,1,0,1.4737,"9","6"
1,490,4,"experiment",70,1,"2",6,-1,0,2.0051,"9","6"
1,491,4,"experiment",71,0,"3",0,1,0,0.345,"9","6"
1,492,4,"experiment",72,1,"3",12,1,1,0.5099,"9","6"
1,493,4,"experiment",73,0,"2",0,0,1,0.6608,"9","6"
1,494,4,"experiment",74,1,"3",1,1,1,0.5409,"9","6"
1,495,4,"experiment",75,0,"4",0,0,1,0.936,"9","6"
1,496,4,"experiment",76,0,"4",0,0,1,0.6342,"9","6"
1,497,4,"experiment",77,0,"2",0,1,0,1.5414,"9","6"
1,498,4,"experiment",78,1,"3",3,1,1,0.5636,"9","6"
1,499,4,"experiment",79,1,"6",5,1,1,1.877,"9","6"
1,500,4,"experiment",80,1,"6",4,1,1,1.3214,"9","6"
1,501,4,"experiment",81,0,"6",0,-1,0,2.0052,"9","6"
1,502,4,"experiment",82,0,"2",0,1,0,1.7471,"9","6"
1,503,4,"experiment",83,0,"3",0,1,0,0.4772,"9","6"
1,504,4,"experiment",84,0,"2",0,0,1,0.558,"9","6"
1,505,4,"experiment",85,0,"2",0,0,1,0.465,"9","6"
1,506,4,"experiment",86,1,"4",1,1,1,0.7257,"9","6"
1,507,4,"experiment",87,1,"6",4,1,1,0.9403,"9","6"
1,508,4,"experiment",88,1,"2",10,1,1,0.5078,"9","6"
1,509,4,"experiment",89,0,"6",0,-1,0,2.0053,"9","6"
1,510,4,"experiment",90,1,"6",2,-1,0,2.0011,"9","6"
1,511,4,"experiment",91,0,"3",0,0,1,0.7273,"9","6"
1,512,4,"experiment",92,0,"6",0,0,1,0.7891,"9","6"
1,513,4,"experiment",93,0,"6",0,0,1,0.4553,"9","6"
1,514,4,"experiment",94,1,"2",2,-1,0,2.0013,"9","6"
1,515,4,"experiment",95,1,"2",6,1,1,0.4709,"9","6"
1,516,4,"experiment",96,0,"2",0,1,0,0.334,"9","6"
1,517,4,"experiment",97,0,"2",0,0,1,0.6504,"9","6"
1,518,4,"experiment",98,0,"4",0,0,1,0.8452,"9","6"
1,519,4,"experiment",99,1,"3",5,1,1,0.5794,"9","6"
1,520,4,"experiment",100,1,"3",7,1,1,0.4848,"9","6"
2,1,1,"practice",1,1,"2",7,-1,0,2.0011,"2","5"
2,2,1,"practice",2,0,"6",0,1,0,1.4384,"2","5"
2,3,1,"practice",3,0,"4",0,0,1,0.9991,"2","5"
2,4,1,"practice",4,0,"4",0,0,1,0.6043,"2","5"
2,5,1,"practice",5,0,"3",0,0,1,0.521,"2","5"
2,6,1,"practice",6,0,"2",0,0,1,0.3782,"2","5"
2,7,1,"practice",7,0,"2",0,0,1,0.4783,"2","5"
2,8,1,"practice",8,1,"4",8,0,0,0.394,"2","5"
2,9,1,"practice",9,1,"6",4,1,1,1.1252,"2","5"
2,10,1,"practice",10,0,"2",0,0,1,1.0562,"2","5"
2,11,1,"practice",11,0,"2",0,0,1,0.6463,"2","5"
2,12,1,"practice",12,1,"6",9,1,1,0.81,"2","5"
2,13,1,"practice",13,0,"3",0,0,1,0.6309,"2","5"
2,14,1,"practice",14,1,"2",10,1,1,0.7838,"2","5"
2,15,1,"practice",15,1,"2",6,1,1,0.6011,"2","5"
2,16,1,"practice",16,0,"3",0,0,1,0.7261,"2","5"
2,17,1,"practice",17,1,"4",3,1,1,0.5183,"2","5"
2,18,1,"practice",18,0,"3",0,1,0,0.4644,"2","5"
2,19,1,"practice",19,0,"2",0,0,1,1.1514,"2","5"
2,20,1,"practice",20,1,"6",1,1,1,1.0337,"2","5"
2,21,1,"practice",21,1,"3",7,1,1,0.7863,"2","5"
2,22,1,"practice",22,0,"3",0,0,1,1.567,"2","5"
2,23,1,"practice",23,1,"4",7,1,1,0.9081,"2","5"
2,24,1,"practice",24,0,"3",0,0,1,1.2645,"2","5"
2,25,1,"practice",25,0,"3",0,0,1,0.9566,"2","5"
2,26,1,"practice",26,1,"4",5,1,1,0.9727,"2","5"
2,27,1,"practice",27,1,"4",4,1,1,0.5427,"2","5"
2,28,1,"practice",28,0,"3",0,0,1,1.1346,"2","5"
2,29,1,"practice",29,0,"6",0,0,1,0.9512,"2","5"
2,30,1,"practice",30,1,"4",9,1,1,0.7688,"2","5"
2,31,1,"experiment",1,1,"4",3,1,1,0.877,"2","5"
2,32,1,"experiment",2,0,"2",0,0,1,1.5697,"2","5"
2,33,1,"experiment",3,1,"4",11,1,1,0.6788,"2","5"
2,34,1,"experiment",4,1,"3",11,1,1,0.5825,"2","5"
2,35,1,"experiment",5,0,"2",0,0,1,0.628,"2","5"
2,36,1,"experiment",6,1,"3",8,1,1,1.2904,"2","5"
2,37,1,"experiment",7,0,"4",0,0,1,0.7308,"2","5"
2,38,1,"experiment",8,1,"6",8,1,1,0.6206,"2","5"
2,39,1,"experiment",9,1,"6",10,1,1,1.7148,"2","5"
2,40,1,"experiment",10,1,"3",5,1,1,0.5452,"2","5"
2,41,1,"experiment",11,0,"2",0,0,1,0.8082,"2","5"
2,42,1,"experiment",12,0,"3",0,0,1,0.6044,"2","5"
2,43,1,"experiment",13,0,"6",0,0,1,0.8103,"2","5"
2,44,1,"experiment",14,0,"3",0,0,1,0.9658,"2","5"
2,45,1,"experiment",15,0,"3",0,0,1,0.606,"2","5"
2,46,1,"experiment",16,1,"6",5,1,1,0.9902,"2","5"
2,47,1,"experiment",17,1,"3",12,1,1,0.7762,"2","5"
2,48,1,"experiment",18,0,"4",0,0,1,0.6484,"2","5"
2,49,1,"experiment",19,1,"6",5,1,1,0.6149,"2","5"
2,50,1,"experiment",20,1,"2",1,1,1,0.6136,"2","5"
2,51,1,"experiment",21,1,"2",1,1,1,0.6087,"2","5"
2,52,1,"experiment",22,0,"6",0,0,1,0.8055,"2","5"
2,53,1,"experiment",23,1,"2",6,1,1,0.5775,"2","5"
2,54,1,"experiment",24,1,"2",1,1,1,1.3749,"2","5"
2,55,1,"experiment",25,0,"4",0,0,1,1.6997,"2","5"
2,56,1,"experiment",26,1,"2",8,1,1,0.5274,"2","5"
2,57,1,"experiment",27,1,"6",8,1,1,0.8706,"2","5"
2,58,1,"experiment",28,0,"2",0,0,1,0.8451,"2","5"
2,59,1,"experiment",29,1,"6",11,1,1,0.5474,"2","5"
2,60,1,"experiment",30,1,"6",9,1,1,0.6198,"2","5"
2,61,1,"experiment",31,0,"2",0,0,1,0.4231,"2","5"
2,62,1,"experiment",32,0,"6",0,1,0,0.7095,"2","5"
2,63,1,"experiment",33,0,"3",0,0,1,0.961,"2","5"
2,64,1,"experiment",34,1,"6",1,1,1,1.8282,"2","5"
2,65,1,"experiment",35,0,"6",0,0,1,0.7888,"2","5"
2,66,1,"experiment",36,1,"3",2,1,1,0.6724,"2","5"
2,67,1,"experiment",37,1,"6",6,0,0,0.6165,"2","5"
2,68,1,"experiment",38,1,"4",8,1,1,1.07,"2","5"
2,69,1,"experiment",39,1,"3",9,1,1,0.5239,"2","5"
2,70,1,"experiment",40,1,"4",11,1,1,0.502,"2","5"
2,71,1,"experiment",41,1,"6",9,1,1,0.8251,"2","5"
2,72,1,"experiment",42,0,"4",0,0,1,0.7019,"2","5"
2,73,1,"experiment",43,1,"2",4,1,1,1.0248,"2","5"
2,74,1,"experiment",44,0,"6",0,0,1,0.836,"2","5"
2,75,1,"experiment",45,1,"6",2,1,1,0.5553,"2","5"
2,76,1,"experiment",46,1,"6",1,1,1,0.6402,"2","5"
2,77,1,"experiment",47,0,"6",0,0,1,1.0558,"2","5"
2,78,1,"experiment",48,1,"3",12,1,1,1.5243,"2","5"
2,79,1,"experiment",49,1,"2",3,1,1,0.5911,"2","5"
2,80,1,"experiment",50,0,"3",0,0,1,0.7249,"2","5"
2,81,1,"experiment",51,0,"4",0,0,1,0.7012,"2","5"
2,82,1,"experiment",52,0,"2",0,0,1,0.7262,"2","5"
2,83,1,"experiment",53,1,"3",8,1,1,0.6378,"2","5"
2,84,1,"experiment",54,0,"4",0,0,1,1.8528,"2","5"
2,85,1,"experiment",55,1,"3",9,1,1,0.9187,"2","5"
2,86,1,"experiment",56,1,"6",8,1,1,1.1056,"2","5"
2,87,1,"experiment",57,1,"3",5,1,1,0.6854,"2","5"
2,88,1,"experiment",58,0,"3",0,0,1,0.465,"2","5"
2,89,1,"experiment",59,0,"2",0,0,1,1.5333,"2","5"
2,90,1,"experiment",60,1,"3",3,1,1,0.6098,"2","5"
2,91,1,"experiment",61,1,"4",2,1,1,0.4987,"2","5"
2,92,1,"experiment",62,0,"3",0,0,1,0.8306,"2","5"
2,93,1,"experiment",63,1,"2",9,1,1,0.603,"2","5"
2,94,1,"experiment",64,1,"6",10,1,1,0.6479,"2","5"
2,95,1,"experiment",65,0,"4",0,0,1,0.5674,"2","5"
2,96,1,"experiment",66,0,"4",0,0,1,0.6255,"2","5"
2,97,1,"experiment",67,1,"6",10,1,1,0.7736,"2","5"
2,98,1,"experiment",68,1,"4",10,1,1,0.6868,"2","5"
2,99,1,"experiment",69,1,"2",9,0,0,0.506,"2","5"
2,100,1,"experiment",70,1,"6",2,1,1,0.6249,"2","5"
2,101,1,"experiment",71,1,"6",7,1,1,0.8803,"2","5"
2,102,1,"experiment",72,0,"4",0,0,1,0.5409,"2","5"
2,103,1,"experiment",73,1,"4",10,0,0,0.4918,"2","5"
2,104,1,"experiment",74,1,"4",2,1,1,0.7571,"2","5"
2,105,1,"experiment",75,0,"2",0,0,1,1.1423,"2","5"
2,106,1,"experiment",76,0,"6",0,0,1,0.9679,"2","5"
2,107,1,"experiment",77,1,"4",2,1,1,0.5431,"2","5"
2,108,1,"experiment",78,0,"2",0,0,1,0.6325,"2","5"
2,109,1,"experiment",79,0,"3",0,0,1,0.6104,"2","5"
2,110,1,"experiment",80,1,"3",1,1,1,0.7466,"2","5"
2,111,1,"experiment",81,1,"2",11,1,1,0.6594,"2","5"
2,112,1,"experiment",82,1,"2",6,0,0,0.6403,"2","5"
2,113,1,"experiment",83,1,"6",10,1,1,0.8865,"2","5"
2,114,1,"experiment",84,1,"2",11,1,1,0.4779,"2","5"
2,115,1,"experiment",85,0,"3",0,0,1,0.5958,"2","5"
2,116,1,"experiment",86,1,"2",9,1,1,0.6563,"2","5"
2,117,1,"experiment",87,1,"4",5,1,1,0.9147,"2","5"
2,118,1,"experiment",88,0,"3",0,0,1,0.5673,"2","5"
2,119,1,"experiment",89,0,"3",0,0,1,0.7903,"2","5"
2,120,1,"experiment",90,0,"6",0,0,1,0.7568,"2","5"
2,121,1,"experiment",91,1,"2",11,1,1,0.6219,"2","5"
2,122,1,"experiment",92,0,"2",0,0,1,0.6265,"2","5"
2,123,1,"experiment",93,0,"2",0,0,1,0.6522,"2","5"
2,124,1,"experiment",94,1,"3",4,1,1,0.5484,"2","5"
2,125,1,"experiment",95,0,"3",0,0,1,0.6229,"2","5"
2,126,1,"experiment",96,0,"4",0,0,1,1.2489,"2","5"
2,127,1,"experiment",97,1,"2",10,1,1,0.6298,"2","5"
2,128,1,"experiment",98,1,"6",4,1,1,1.0519,"2","5"
2,129,1,"experiment",99,1,"2",12,1,1,0.6676,"2","5"
2,130,1,"experiment",100,0,"2",0,0,1,0.6786,"2","5"
2,131,2,"practice",1,0,"3",0,-1,0,2.0027,"5","2"
2,132,2,"practice",2,1,"3",8,1,1,1.7339,"5","2"
2,133,2,"practice",3,0,"2",0,0,1,0.7551,"5","2"
2,134,2,"practice",4,1,"6",5,1,1,0.8287,"5","2"
2,135,2,"practice",5,0,"3",0,0,1,0.8975,"5","2"
2,136,2,"practice",6,1,"6",2,1,1,0.9343,"5","2"
2,137,2,"practice",7,0,"6",0,0,1,0.6623,"5","2"
2,138,2,"practice",8,1,"3",8,1,1,1.0239,"5","2"
2,139,2,"practice",9,0,"6",0,0,1,0.648,"5","2"
2,140,2,"practice",10,1,"6",1,1,1,0.8543,"5","2"
2,141,2,"practice",11,1,"3",10,1,1,1.1802,"5","2"
2,142,2,"practice",12,0,"4",0,0,1,0.7446,"5","2"
2,143,2,"practice",13,0,"3",0,0,1,0.884,"5","2"
2,144,2,"practice",14,1,"2",5,1,1,0.4831,"5","2"
2,145,2,"practice",15,1,"6",6,1,1,0.8206,"5","2"
2,146,2,"practice",16,0,"6",0,0,1,0.5832,"5","2"
2,147,2,"practice",17,0,"4",0,0,1,0.4926,"5","2"
2,148,2,"practice",18,1,"3",5,1,1,0.4848,"5","2"
2,149,2,"practice",19,1,"3",1,1,1,0.6427,"5","2"
2,150,2,"practice",20,1,"4",2,1,1,0.7968,"5","2"
2,151,2,"practice",21,0,"4",0,0,1,0.6957,"5","2"
2,152,2,"practice",22,1,"6",8,1,1,0.7796,"5","2"
2,153,2,"practice",23,0,"4",0,0,1,0.5464,"5","2"
2,154,2,"practice",24,1,"4",5,1,1,0.677,"5","2"
2,155,2,"practice",25,1,"3",3,1,1,0.7117,"5","2"
2,156,2,"practice",26,1,"3",7,1,1,0.5807,"5","2"
2,157,2,"practice",27,1,"2",3,1,1,0.5308,"5","2"
2,158,2,"practice",28,1,"6",3,1,1,0.5124,"5","2"
2,159,2,"practice",29,1,"4",1,1,1,0.4673,"5","2"
2,160,2,"practice",30,0,"3",0,0,1,0.4743,"5","2"
2,161,2,"experiment",1,1,"4",10,-1,0,2.0003,"5","2"
2,162,2,"experiment",2,0,"4",0,0,1,0.8542,"5","2"
2,163,2,"experiment",3,1,"3",12,1,1,0.7235,"5","2"
2,164,2,"experiment",4,1,"2",10,1,1,0.5878,"5","2"
2,165,2,"experiment",5,1,"4",1,1,1,0.8956,"5","2"
2,166,2,"experiment",6,1,"2",5,1,1,0.5192,"5","2"
2,167,2,"experiment",7,1,"4",8,1,1,0.6291,"5","2"
2,168,2,"experiment",8,1,"2",6,1,1,0.7134,"5","2"
2,169,2,"experiment",9,1,"2",2,1,1,0.4455,"5","2"
2,170,2,"experiment",10,0,"3",0,1,0,0.4151,"5","2"
2,171,2,"experiment",11,1,"2",4,1,1,0.6148,"5","2"
2,172,2,"experiment",12,0,"2",0,0,1,0.4703,"5","2"
2,173,2,"experiment",13,1,"6",7,0,0,0.5607,"5","2"
2,174,2,"experiment",14,1,"3",6,1,1,0.5615,"5","2"
2,175,2,"experiment",15,1,"6",3,1,1,1.5013,"5","2"
2,176,2,"experiment",16,1,"4",11,1,1,1.0417,"5","2"
2,177,2,"experiment",17,0,"2",0,0,1,0.3767,"5","2"
2,178,2,"experiment",18,0,"6",0,0,1,0.59,"5","2"
2,179,2,"experiment",19,0,"2",0,0,1,0.6039,"5","2"
2,180,2,"experiment",20,0,"6",0,0,1,0.5679,"5","2"
2,181,2,"experiment",21,0,"4",0,0,1,0.5792,"5","2"
2,182,2,"experiment",22,1,"4",9,1,1,0.5137,"5","2"
2,183,2,"experiment",23,0,"3",0,0,1,0.606,"5","2"
2,184,2,"experiment",24,0,"2",0,0,1,0.5057,"5","2"
2,185,2,"experiment",25,0,"6",0,0,1,0.5321,"5","2"
2,186,2,"experiment",26,0,"4",0,0,1,0.3255,"5","2"
2,187,2,"experiment",27,1,"4",1,1,1,0.4562,"5","2"
2,188,2,"experiment",28,0,"4",0,0,1,0.4722,"5","2"
2,189,2,"experiment",29,1,"3",2,1,1,0.7488,"5","2"
2,190,2,"experiment",30,1,"2",1,1,1,0.5891,"5","2"
2,191,2,"experiment",31,1,"6",1,1,1,0.6557,"5","2"
2,192,2,"experiment",32,1,"3",7,1,1,0.584,"5","2"
2,193,2,"experiment",33,0,"3",0,0,1,0.5098,"5","2"
2,194,2,"experiment",34,0,"2",0,0,1,0.5089,"5","2"
2,195,2,"experiment",35,1,"4",10,1,1,0.4178,"5","2"
2,196,2,"experiment",36,0,"4",0,0,1,0.5826,"5","2"
2,197,2,"experiment",37,0,"6",0,0,1,0.4041,"5","2"
2,198,2,"experiment",38,1,"4",1,1,1,0.5543,"5","2"
2,199,2,"experiment",39,1,"4",12,1,1,0.5344,"5","2"
2,200,2,"experiment",40,0,"2",0,0,1,0.3606,"5","2"
2,201,2,"experiment",41,1,"4",9,1,1,0.8389,"5","2"
2,202,2,"experiment",42,1,"6",10,1,1,0.6226,"5","2"
2,203,2,"experiment",43,0,"3",0,0,1,0.4195,"5","2"
2,204,2,"experiment",44,0,"3",0,1,0,0.4924,"5","2"
2,205,2,"experiment",45,0,"3",0,0,1,0.4564,"5","2"
2,206,2,"experiment",46,1,"3",5,1,1,0.4349,"5","2"
2,207,2,"experiment",47,1,"3",8,1,1,0.6982,"5","2"
2,208,2,"experiment",48,0,"4",0,0,1,0.5831,"5","2"
2,209,2,"experiment",49,1,"6",4,1,1,0.6287,"5","2"
2,210,2,"experiment",50,1,"4",6,1,1,0.7607,"5","2"
2,211,2,"experiment",51,0,"3",0,0,1,0.4639,"5","2"
2,212,2,"experiment",52,1,"4",5,1,1,0.8222,"5","2"
2,213,2,"experiment",53,0,"3",0,0,1,0.5512,"5","2"
2,214,2,"experiment",54,1,"6",5,1,1,0.5539,"5","2"
2,215,2,"experiment",55,1,"2",11,1,1,0.6492,"5","2"
2,216,2,"experiment",56,0,"3",0,0,1,0.5067,"5","2"
2,217,2,"experiment",57,0,"4",0,0,1,0.5301,"5","2"
2,218,2,"experiment",58,1,"3",4,1,1,0.5815,"5","2"
2,219,2,"experiment",59,1,"6",11,1,1,0.6157,"5","2"
2,220,2,"experiment",60,1,"3",7,1,1,0.5861,"5","2"
2,221,2,"experiment",61,0,"3",0,0,1,0.6074,"5","2"
2,222,2,"experiment",62,1,"2",7,1,1,0.5015,"5","2"
2,223,2,"experiment",63,0,"2",0,0,1,1.0185,"5","2"
2,224,2,"experiment",64,1,"2",1,1,1,0.6811,"5","2"
2,225,2,"experiment",65,0,"2",0,0,1,1.289,"5","2"
2,226,2,"experiment",66,0,"6",0,0,1,0.4626,"5","2"
2,227,2,"experiment",67,1,"6",1,1,1,0.541,"5","2"
2,228,2,"experiment",68,1,"6",3,1,1,1.1665,"5","2"
2,229,2,"experiment",69,0,"3",0,0,1,0.5674,"5","2"
2,230,2,"experiment",70,1,"4",7,1,1,0.6007,"5","2"
2,231,2,"experiment",71,1,"4",7,1,1,0.4844,"5","2"
2,232,2,"experiment",72,1,"4",9,1,1,0.6199,"5","2"
2,233,2,"experiment",73,1,"4",3,1,1,0.7356,"5","2"
2,234,2,"experiment",74,0,"4",0,0,1,0.725,"5","2"
2,235,2,"experiment",75,0,"3",0,0,1,0.673,"5","2"
2,236,2,"experiment",76,0,"4",0,0,1,0.5394,"5","2"
2,237,2,"experiment",77,1,"2",7,1,1,0.5858,"5","2"
2,238,2,"experiment",78,1,"2",12,1,1,0.5532,"5","2"
2,239,2,"experiment",79,0,"6",0,0,1,0.6631,"5","2"
2,240,2,"experiment",80,1,"3",8,1,1,0.5535,"5","2"
2,241,2,"experiment",81,0,"6",0,0,1,0.5395,"5","2"
2,242,2,"experiment",82,0,"4",0,0,1,0.5459,"5","2"
2,243,2,"experiment",83,0,"4",0,0,1,0.7099,"5","2"
2,244,2,"experiment",84,0,"3",0,0,1,0.486,"5","2"
2,245,2,"experiment",85,1,"6",8,1,1,0.7567,"5","2"
2,246,2,"experiment",86,1,"2",2,1,1,0.6379,"5","2"
2,247,2,"experiment",87,1,"4",4,1,1,0.7321,"5","2"
2,248,2,"experiment",88,0,"4",0,0,1,0.6677,"5","2"
2,249,2,"experiment",89,1,"4",6,1,1,0.5807,"5","2"
2,250,2,"experiment",90,0,"3",0,0,1,1.2587,"5","2"
2,251,2,"experiment",91,0,"3",0,0,1,0.6078,"5","2"
2,252,2,"experiment",92,1,"4",9,1,1,0.6399,"5","2"
2,253,2,"experiment",93,1,"2",7,1,1,0.551,"5","2"
2,254,2,"experiment",94,0,"3",0,0,1,0.5737,"5","2"
2,255,2,"experiment",95,1,"3",11,1,1,0.5883,"5","2"
2,256,2,"experiment",96,1,"6",3,1,1,0.6403,"5","2"
2,257,2,"experiment",97,0,"3",0,0,1,1.1593,"5","2"
2,258,2,"experiment",98,1,"6",9,1,1,0.963,"5","2"
2,259,2,"experiment",99,0,"4",0,0,1,0.7385,"5","2"
2,260,2,"experiment",100,0,"4",0,0,1,1.4743,"5","2"
2,261,3,"practice",1,0,"2",0,0,1,0.5393,"5","2"
2,262,3,"practice",2,1,"3",7,1,1,1.6086,"5","2"
2,263,3,"practice",3,1,"6",4,1,1,0.6741,"5","2"
2,264,3,"practice",4,0,"2",0,0,1,0.6603,"5","2"
2,265,3,"practice",5,0,"6",0,0,1,0.5158,"5","2"
2,266,3,"practice",6,0,"3",0,0,1,0.5447,"5","2"
2,267,3,"practice",7,0,"4",0,0,1,0.4646,"5","2"
2,268,3,"practice",8,1,"6",2,1,1,0.6939,"5","2"
2,269,3,"practice",9,0,"2",0,0,1,0.4897,"5","2"
2,270,3,"practice",10,1,"4",9,0,0,0.5955,"5","2"
2,271,3,"practice",11,0,"6",0,0,1,1.0563,"5","2"
2,272,3,"practice",12,1,"6",8,1,1,0.6996,"5","2"
2,273,3,"practice",13,0,"6",0,0,1,0.5465,"5","2"
2,274,3,"practice",14,0,"4",0,0,1,0.8333,"5","2"
2,275,3,"practice",15,1,"4",12,1,1,0.5546,"5","2"
2,276,3,"practice",16,0,"2",0,0,1,0.5299,"5","2"
2,277,3,"practice",17,0,"3",0,0,1,0.4972,"5","2"
2,278,3,"practice",18,0,"6",0,0,1,0.662,"5","2"
2,279,3,"practice",19,1,"4",4,1,1,0.7393,"5","2"
2,280,3,"practice",20,0,"4",0,0,1,0.5379,"5","2"
2,281,3,"practice",21,1,"6",2,1,1,0.5463,"5","2"
2,282,3,"practice",22,1,"3",10,1,1,0.9955,"5","2"
2,283,3,"practice",23,1,"6",2,1,1,0.8741,"5","2"
2,284,3,"practice",24,1,"6",1,1,1,0.6759,"5","2"
2,285,3,"practice",25,1,"2",12,1,1,0.7192,"5","2"
2,286,3,"practice",26,1,"6",11,1,1,0.7669,"5","2"
2,287,3,"practice",27,1,"4",5,1,1,0.4855,"5","2"
2,288,3,"practice",28,0,"6",0,0,1,0.7812,"5","2"
2,289,3,"practice",29,1,"6",9,1,1,1.0011,"5","2"
2,290,3,"practice",30,0,"6",0,0,1,0.8693,"5","2"
2,291,3,"experiment",1,1,"3",7,1,1,0.9882,"5","2"
2,292,3,"experiment",2,1,"6",5,1,1,0.7361,"5","2"
2,293,3,"experiment",3,0,"6",0,0,1,0.5103,"5","2"
2,294,3,"experiment",4,0,"3",0,0,1,0.3786,"5","2"
2,295,3,"experiment",5,1,"2",1,1,1,0.4098,"5","2"
2,296,3,"experiment",6,1,"2",10,1,1,0.4655,"5","2"
2,297,3,"experiment",7,0,"4",0,0,1,0.3604,"5","2"
2,298,3,"experiment",8,0,"3",0,0,1,0.4129,"5","2"
2,299,3,"experiment",9,1,"4",11,1,1,0.448,"5","2"
2,300,3,"experiment",10,0,"6",0,0,1,0.3083,"5","2"
2,301,3,"experiment",11,0,"2",0,0,1,0.4433,"5","2"
2,302,3,"experiment",12,1,"4",3,1,1,0.3809,"5","2"
2,303,3,"experiment",13,0,"2",0,0,1,0.3474,"5","2"
2,304,3,"experiment",14,1,"2",2,0,0,0.3711,"5","2"
2,305,3,"experiment",15,0,"2",0,0,1,0.5156,"5","2"
2,306,3,"experiment",16,0,"4",0,0,1,0.5635,"5","2"
2,307,3,"experiment",17,0,"3",0,0,1,0.3751,"5","2"
2,308,3,"experiment",18,0,"6",0,0,1,0.3881,"5","2"
2,309,3,"experiment",19,1,"3",11,1,1,0.4711,"5","2"
2,310,3,"experiment",20,0,"4",0,0,1,0.5596,"5","2"
2,311,3,"experiment",21,1,"4",1,1,1,0.5243,"5","2"
2,312,3,"experiment",22,0,"2",0,0,1,0.4223,"5","2"
2,313,3,"experiment",23,1,"2",7,1,1,0.8976,"5","2"
2,314,3,"experiment",24,1,"2",10,1,1,0.5636,"5","2"
2,315,3,"experiment",25,1,"3",11,1,1,0.5398,"5","2"
2,316,3,"experiment",26,0,"4",0,0,1,0.3865,"5","2"
2,317,3,"experiment",27,1,"2",4,1,1,0.498,"5","2"
2,318,3,"experiment",28,0,"3",0,0,1,0.3855,"5","2"
2,319,3,"experiment",29,0,"4",0,0,1,0.3565,"5","2"
2,320,3,"experiment",30,1,"3",1,1,1,0.374,"5","2"
2,321,3,"experiment",31,1,"6",7,0,0,0.5034,"5","2"
2,322,3,"experiment",32,1,"4",10,1,1,0.6581,"5","2"
2,323,3,"experiment",33,1,"6",4,1,1,0.8165,"5","2"
2,324,3,"experiment",34,1,"2",2,1,1,0.624,"5","2"
2,325,3,"experiment",35,0,"4",0,0,1,0.5353,"5","2"
2,326,3,"experiment",36,1,"4",7,1,1,0.6065,"5","2"
2,327,3,"experiment",37,1,"2",8,1,1,0.5966,"5","2"
2,328,3,"experiment",38,0,"2",0,0,1,0.633,"5","2"
2,329,3,"experiment",39,1,"2",8,1,1,0.5068,"5","2"
2,330,3,"experiment",40,0,"3",0,0,1,0.3717,"5","2"
2,331,3,"experiment",41,0,"3",0,0,1,0.8093,"5","2"
2,332,3,"experiment",42,0,"3",0,0,1,0.4913,"5","2"
2,333,3,"experiment",43,0,"2",0,0,1,0.4984,"5","2"
2,334,3,"experiment",44,0,"2",0,0,1,0.4347,"5","2"
2,335,3,"experiment",45,0,"4",0,0,1,0.3713,"5","2"
2,336,3,"experiment",46,0,"3",0,0,1,0.4583,"5","2"
2,337,3,"experiment",47,0,"6",0,0,1,0.4134,"5","2"
2,338,3,"experiment",48,1,"3",4,1,1,0.4406,"5","2"
2,339,3,"experiment",49,1,"2",7,0,0,0.4422,"5","2"
2,340,3,"experiment",50,0,"4",0,0,1,0.5356,"5","2"
2,341,3,"experiment",51,0,"2",0,0,1,0.5391,"5","2"
2,342,3,"experiment",52,1,"4",2,1,1,0.431,"5","2"
2,343,3,"experiment",53,1,"6",9,1,1,0.7879,"5","2"
2,344,3,"experiment",54,1,"2",12,1,1,0.466,"5","2"
2,345,3,"experiment",55,1,"2",5,1,1,0.6502,"5","2"
2,346,3,"experiment",56,0,"2",0,0,1,0.6585,"5","2"
2,347,3,"experiment",57,0,"2",0,0,1,0.3982,"5","2"
2,348,3,"experiment",58,1,"6",11,1,1,0.4905,"5","2"
2,349,3,"experiment",59,0,"6",0,0,1,0.673,"5","2"
2,350,3,"experiment",60,0,"2",0,0,1,0.4997,"5","2"
2,351,3,"experiment",61,0,"3",0,0,1,0.5194,"5","2"
2,352,3,"experiment",62,0,"6",0,0,1,0.5374,"5","2"
2,353,3,"experiment",63,0,"4",0,0,1,0.3879,"5","2"
2,354,3,"experiment",64,0,"3",0,0,1,0.394,"5","2"
2,355,3,"experiment",65,0,"3",0,0,1,0.4916,"5","2"
2,356,3,"experiment",66,0,"2",0,0,1,0.402,"5","2"
2,357,3,"experiment",67,0,"4",0,0,1,0.4974,"5","2"
2,358,3,"experiment",68,0,"2",0,0,1,0.3722,"5","2"
2,359,3,"experiment",69,0,"3",0,0,1,0.394,"5","2"
2,360,3,"experiment",70,1,"4",11,1,1,0.4766,"5","2"
2,361,3,"experiment",71,1,"4",6,1,1,0.7278,"5","2"
2,362,3,"experiment",72,0,"2",0,0,1,0.8596,"5","2"
2,363,3,"experiment",73,1,"4",11,1,1,0.4841,"5","2"
2,364,3,"experiment",74,1,"3",11,1,1,0.4183,"5","2"
2,365,3,"experiment",75,1,"6",2,1,1,0.7375,"5","2"
2,366,3,"experiment",76,1,"6",2,1,1,0.5832,"5","2"
2,367,3,"experiment",77,0,"6",0,0,1,0.5491,"5","2"
2,368,3,"experiment",78,1,"4",11,1,1,0.4302,"5","2"
2,369,3,"experiment",79,0,"3",0,0,1,0.4886,"5","2"
2,370,3,"experiment",80,1,"4",4,1,1,0.4655,"5","2"
2,371,3,"experiment",81,0,"2",0,0,1,0.4562,"5","2"
2,372,3,"experiment",82,0,"6",0,0,1,0.6,"5","2"
2,373,3,"experiment",83,0,"6",0,0,1,0.4361,"5","2"
2,374,3,"experiment",84,0,"6",0,0,1,0.413,"5","2"
2,375,3,"experiment",85,0,"4",0,0,1,0.5244,"5","2"
2,376,3,"experiment",86,1,"3",9,1,1,0.5071,"5","2"
2,377,3,"experiment",87,1,"6",4,1,1,0.6067,"5","2"
2,378,3,"experiment",88,0,"6",0,0,1,0.5841,"5","2"
2,379,3,"experiment",89,0,"4",0,0,1,0.4915,"5","2"
2,380,3,"experiment",90,1,"2",2,1,1,1.2919,"5","2"
2,381,3,"experiment",91,1,"6",9,1,1,0.7179,"5","2"
2,382,3,"experiment",92,0,"3",0,0,1,0.5272,"5","2"
2,383,3,"experiment",93,0,"3",0,0,1,0.4084,"5","2"
2,384,3,"experiment",94,0,"3",0,0,1,0.6002,"5","2"
2,385,3,"experiment",95,0,"3",0,0,1,0.6262,"5","2"
2,386,3,"experiment",96,1,"6",8,1,1,0.4851,"5","2"
2,387,3,"experiment",97,0,"2",0,0,1,1.0762,"5","2"
2,388,3,"experiment",98,1,"2",8,1,1,0.4722,"5","2"
2,389,3,"experiment",99,1,"6",1,1,1,0.5509,"5","2"
2,390,3,"experiment",100,0,"4",0,0,1,0.7171,"5","2"
2,391,4,"practice",1,1,"6",12,1,1,0.7805,"2","5"
2,392,4,"practice",2,0,"2",0,0,1,1.1086,"2","5"
2,393,4,"practice",3,1,"6",5,1,1,0.9373,"2","5"
2,394,4,"practice",4,1,"6",10,1,1,0.6902,"2","5"
2,395,4,"practice",5,0,"4",0,0,1,0.8034,"2","5"
2,396,4,"practice",6,0,"2",0,0,1,0.6606,"2","5"
2,397,4,"practice",7,1,"4",11,1,1,1.0515,"2","5"
2,398,4,"practice",8,0,"4",0,0,1,0.331,"2","5"
2,399,4,"practice",9,0,"6",0,1,0,0.4496,"2","5"
2,400,4,"practice",10,1,"6",7,1,1,1.1998,"2","5"
2,401,4,"practice",11,1,"3",9,1,1,1.3752,"2","5"
2,402,4,"practice",12,0,"4",0,0,1,0.8825,"2","5"
2,403,4,"practice",13,1,"2",10,0,0,1.265,"2","5"
2,404,4,"practice",14,0,"3",0,0,1,0.5108,"2","5"
2,405,4,"practice",15,0,"6",0,1,0,0.4168,"2","5"
2,406,4,"practice",16,0,"3",0,0,1,0.9994,"2","5"
2,407,4,"practice",17,0,"4",0,0,1,0.5528,"2","5"
2,408,4,"practice",18,1,"2",3,1,1,0.508,"2","5"
2,409,4,"practice",19,0,"3",0,0,1,0.3567,"2","5"
2,410,4,"practice",20,1,"2",10,1,1,0.5602,"2","5"
2,411,4,"practice",21,0,"3",0,0,1,1.0093,"2","5"
2,412,4,"practice",22,1,"2",12,1,1,0.6337,"2","5"
2,413,4,"practice",23,1,"6",4,1,1,1.1152,"2","5"
2,414,4,"practice",24,0,"6",0,0,1,0.5471,"2","5"
2,415,4,"practice",25,0,"4",0,0,1,0.6269,"2","5"
2,416,4,"practice",26,1,"4",9,1,1,0.9331,"2","5"
2,417,4,"practice",27,0,"3",0,0,1,0.7915,"2","5"
2,418,4,"practice",28,0,"6",0,0,1,0.6929,"2","5"
2,419,4,"practice",29,1,"2",1,1,1,0.5579,"2","5"
2,420,4,"practice",30,1,"4",11,1,1,0.9451,"2","5"
2,421,4,"experiment",1,1,"2",10,1,1,0.6589,"2","5"
2,422,4,"experiment",2,1,"2",10,1,1,0.4661,"2","5"
2,423,4,"experiment",3,0,"2",0,0,1,0.5207,"2","5"
2,424,4,"experiment",4,1,"6",6,1,1,0.7515,"2","5"
2,425,4,"experiment",5,0,"6",0,0,1,0.6375,"2","5"
2,426,4,"experiment",6,0,"2",0,0,1,0.7581,"2","5"
2,427,4,"experiment",7,1,"6",8,1,1,0.6226,"2","5"
2,428,4,"experiment",8,0,"3",0,1,0,0.6233,"2","5"
2,429,4,"experiment",9,1,"4",4,1,1,0.7699,"2","5"
2,430,4,"experiment",10,1,"3",10,1,1,0.5861,"2","5"
2,431,4,"experiment",11,0,"4",0,0,1,0.4611,"2","5"
2,432,4,"experiment",12,0,"3",0,0,1,0.4146,"2","5"
2,433,4,"experiment",13,0,"2",0,0,1,0.8349,"2","5"
2,434,4,"experiment",14,0,"6",0,0,1,0.4407,"2","5"
2,435,4,"experiment",15,0,"4",0,0,1,0.5011,"2","5"
2,436,4,"experiment",16,1,"3",6,1,1,1.3228,"2","5"
2,437,4,"experiment",17,1,"4",12,1,1,0.5449,"2","5"
2,438,4,"experiment",18,1,"2",5,1,1,0.5478,"2","5"
2,439,4,"experiment",19,0,"4",0,0,1,0.5722,"2","5"
2,440,4,"experiment",20,0,"2",0,0,1,0.4105,"2","5"
2,441,4,"experiment",21,1,"6",8,1,1,0.5544,"2","5"
2,442,4,"experiment",22,0,"2",0,0,1,0.5583,"2","5"
2,443,4,"experiment",23,0,"3",0,0,1,0.6813,"2","5"
2,444,4,"experiment",24,1,"4",5,1,1,0.5479,"2","5"
2,445,4,"experiment",25,1,"3",1,1,1,0.6132,"2","5"
2,446,4,"experiment",26,0,"3",0,0,1,0.8113,"2","5"
2,447,4,"experiment",27,0,"6",0,0,1,0.684,"2","5"
2,448,4,"experiment",28,1,"4",8,1,1,1.2618,"2","5"
2,449,4,"experiment",29,0,"2",0,0,1,0.7137,"2","5"
2,450,4,"experiment",30,1,"3",12,1,1,0.5377,"2","5"
2,451,4,"experiment",31,1,"4",9,1,1,1.4769,"2","5"
2,452,4,"experiment",32,1,"2",2,1,1,0.6021,"2","5"
2,453,4,"experiment",33,0,"6",0,0,1,0.4477,"2","5"
2,454,4,"experiment",34,0,"4",0,0,1,0.5892,"2","5"
2,455,4,"experiment",35,0,"3",0,0,1,0.6207,"2","5"
2,456,4,"experiment",36,0,"2",0,0,1,0.4694,"2","5"
2,457,4,"experiment",37,1,"3",4,1,1,0.6968,"2","5"
2,458,4,"experiment",38,1,"3",2,1,1,0.554,"2","5"
2,459,4,"experiment",39,0,"4",0,0,1,1.2212,"2","5"
2,460,4,"experiment",40,0,"6",0,0,1,0.5236,"2","5"
2,461,4,"experiment",41,1,"2",6,1,1,0.5083,"2","5"
2,462,4,"experiment",42,0,"2",0,0,1,1.0005,"2","5"
2,463,4,"experiment",43,0,"4",0,0,1,0.429,"2","5"
2,464,4,"experiment",44,0,"3",0,0,1,0.5413,"2","5"
2,465,4,"experiment",45,1,"3",3,1,1,0.5248,"2","5"
2,466,4,"experiment",46,0,"2",0,0,1,0.6369,"2","5"
2,467,4,"experiment",47,1,"2",9,1,1,0.5051,"2","5"
2,468,4,"experiment",48,1,"6",8,0,0,0.5831,"2","5"
2,469,4,"experiment",49,0,"6",0,0,1,0.5183,"2","5"
2,470,4,"experiment",50,0,"4",0,0,1,0.5598,"2","5"
2,471,4,"experiment",51,1,"6",1,1,1,0.4892,"2","5"
2,472,4,"experiment",52,0,"6",0,0,1,0.5905,"2","5"
2,473,4,"experiment",53,1,"6",9,1,1,0.6314,"2","5"
2,474,4,"experiment",54,1,"6",9,1,1,0.4688,"2","5"
2,475,4,"experiment",55,1,"2",12,1,1,0.4787,"2","5"
2,476,4,"experiment",56,1,"2",1,1,1,0.5805,"2","5"
2,477,4,"experiment",57,1,"4",1,1,1,0.5663,"2","5"
2,478,4,"experiment",58,1,"2",5,1,1,0.5074,"2","5"
2,479,4,"experiment",59,0,"3",0,0,1,0.8512,"2","5"
2,480,4,"experiment",60,0,"2",0,0,1,1.1772,"2","5"
2,481,4,"experiment",61,1,"3",3,1,1,0.4878,"2","5"
2,482,4,"experiment",62,1,"3",10,1,1,0.4609,"2","5"
2,483,4,"experiment",63,0,"3",0,0,1,0.5873,"2","5"
2,484,4,"experiment",64,0,"6",0,0,1,0.6229,"2","5"
2,485,4,"experiment",65,1,"3",8,1,1,0.5201,"2","5"
2,486,4,"experiment",66,1,"3",10,1,1,0.4626,"2","5"
2,487,4,"experiment",67,0,"6",0,0,1,0.5074,"2","5"
2,488,4,"experiment",68,0,"6",0,0,1,0.5896,"2","5"
2,489,4,"experiment",69,0,"2",0,0,1,0.5924,"2","5"
2,490,4,"experiment",70,0,"3",0,0,1,1.5265,"2","5"
2,491,4,"experiment",71,1,"4",11,1,1,0.5193,"2","5"
2,492,4,"experiment",72,1,"2",3,1,1,0.5124,"2","5"
2,493,4,"experiment",73,1,"3",7,1,1,0.58,"2","5"
2,494,4,"experiment",74,0,"2",0,0,1,0.4819,"2","5"
2,495,4,"experiment",75,0,"2",0,0,1,0.5984,"2","5"
2,496,4,"experiment",76,1,"4",4,1,1,0.7044,"2","5"
2,497,4,"experiment",77,0,"6",0,0,1,0.5061,"2","5"
2,498,4,"experiment",78,1,"2",9,1,1,0.505,"2","5"
2,499,4,"experiment",79,1,"4",1,1,1,1.487,"2","5"
2,500,4,"experiment",80,1,"4",2,1,1,0.3614,"2","5"
2,501,4,"experiment",81,1,"6",9,1,1,0.5315,"2","5"
2,502,4,"experiment",82,0,"4",0,0,1,0.3844,"2","5"
2,503,4,"experiment",83,1,"3",9,1,1,0.5704,"2","5"
2,504,4,"experiment",84,1,"2",8,1,1,0.9003,"2","5"
2,505,4,"experiment",85,1,"4",3,1,1,0.6615,"2","5"
2,506,4,"experiment",86,1,"2",4,1,1,0.3895,"2","5"
2,507,4,"experiment",87,1,"6",4,1,1,0.5119,"2","5"
2,508,4,"experiment",88,0,"3",0,0,1,1.3724,"2","5"
2,509,4,"experiment",89,1,"4",2,1,1,0.653,"2","5"
2,510,4,"experiment",90,1,"6",9,1,1,0.8378,"2","5"
2,511,4,"experiment",91,0,"3",0,0,1,0.464,"2","5"
2,512,4,"experiment",92,0,"3",0,0,1,1.1342,"2","5"
2,513,4,"experiment",93,1,"2",1,1,1,0.5164,"2","5"
2,514,4,"experiment",94,1,"3",2,1,1,0.4972,"2","5"
2,515,4,"experiment",95,1,"4",3,1,1,0.4403,"2","5"
2,516,4,"experiment",96,1,"4",9,1,1,0.4772,"2","5"
2,517,4,"experiment",97,0,"2",0,0,1,1.4873,"2","5"
2,518,4,"experiment",98,1,"6",4,1,1,0.4266,"2","5"
2,519,4,"experiment",99,0,"2",0,0,1,1.7487,"2","5"
2,520,4,"experiment",100,0,"6",0,0,1,0.6857,"2","5"
3,1,1,"practice",1,1,"3",7,1,1,1.0446,"5","2"
3,2,1,"practice",2,1,"4",12,1,1,0.836,"5","2"
3,3,1,"practice",3,1,"4",9,1,1,0.6655,"5","2"
3,4,1,"practice",4,0,"4",0,0,1,0.6377,"5","2"
3,5,1,"practice",5,0,"3",0,0,1,0.5381,"5","2"
3,6,1,"practice",6,0,"3",0,0,1,0.4523,"5","2"
3,7,1,"practice",7,0,"2",0,0,1,0.4978,"5","2"
3,8,1,"practice",8,1,"4",12,1,1,0.5967,"5","2"
3,9,1,"practice",9,0,"3",0,0,1,0.56,"5","2"
3,10,1,"practice",10,0,"2",0,0,1,0.5294,"5","2"
3,11,1,"practice",11,1,"3",7,1,1,0.6516,"5","2"
3,12,1,"practice",12,1,"3",8,1,1,0.5192,"5","2"
3,13,1,"practice",13,0,"4",0,0,1,0.4463,"5","2"
3,14,1,"practice",14,0,"4",0,0,1,0.532,"5","2"
3,15,1,"practice",15,1,"3",5,1,1,0.608,"5","2"
3,16,1,"practice",16,0,"3",0,0,1,0.5137,"5","2"
3,17,1,"practice",17,0,"4",0,0,1,0.5248,"5","2"
3,18,1,"practice",18,0,"2",0,0,1,0.3946,"5","2"
3,19,1,"practice",19,0,"4",0,0,1,0.4938,"5","2"
3,20,1,"practice",20,1,"4",11,1,1,0.566,"5","2"
3,21,1,"practice",21,1,"6",7,1,1,0.6474,"5","2"
3,22,1,"practice",22,0,"6",0,0,1,0.535,"5","2"
3,23,1,"practice",23,0,"4",0,0,1,0.4563,"5","2"
3,24,1,"practice",24,0,"3",0,0,1,0.4788,"5","2"
3,25,1,"practice",25,1,"6",9,1,1,0.4814,"5","2"
3,26,1,"practice",26,0,"6",0,0,1,0.8501,"5","2"
3,27,1,"practice",27,1,"6",10,1,1,0.5111,"5","2"
3,28,1,"practice",28,1,"2",9,1,1,0.5678,"5","2"
3,29,1,"practice",29,1,"4",1,1,1,0.4629,"5","2"
3,30,1,"practice",30,1,"2",1,1,1,0.4521,"5","2"
3,31,1,"experiment",1,0,"6",0,0,1,0.8743,"5","2"
3,32,1,"experiment",2,0,"3",0,0,1,0.553,"5","2"
3,33,1,"experiment",3,1,"4",9,1,1,0.4665,"5","2"
3,34,1,"experiment",4,0,"4",0,0,1,0.6357,"5","2"
3,35,1,"experiment",5,1,"4",7,1,1,0.5448,"5","2"
3,36,1,"experiment",6,1,"4",1,1,1,0.4398,"5","2"
3,37,1,"experiment",7,1,"6",2,1,1,0.7806,"5","2"
3,38,1,"experiment",8,1,"2",11,1,1,0.4615,"5","2"
3,39,1,"experiment",9,0,"6",0,0,1,0.4946,"5","2"
3,40,1,"experiment",10,1,"4",8,1,1,0.5175,"5","2"
3,41,1,"experiment",11,1,"2",8,1,1,0.471,"5","2"
3,42,1,"experiment",12,0,"4",0,0,1,0.4801,"5","2"
3,43,1,"experiment",13,1,"6",2,1,1,0.4295,"5","2"
3,44,1,"experiment",14,0,"6",0,0,1,0.4895,"5","2"
3,45,1,"experiment",15,1,"6",3,1,1,0.4277,"5","2"
3,46,1,"experiment",16,0,"6",0,0,1,0.4792,"5","2"
3,47,1,"experiment",17,1,"3",1,1,1,0.4236,"5","2"
3,48,1,"experiment",18,1,"2",8,1,1,0.3991,"5","2"
3,49,1,"experiment",19,0,"4",0,0,1,0.51,"5","2"
3,50,1,"experiment",20,0,"6",0,0,1,0.6048,"5","2"
3,51,1,"experiment",21,1,"3",5,1,1,0.4975,"5","2"
3,52,1,"experiment",22,1,"6",12,1,1,0.4851,"5","2"
3,53,1,"experiment",23,1,"2",10,1,1,0.4217,"5","2"
3,54,1,"experiment",24,0,"3",0,0,1,0.4934,"5","2"
3,55,1,"experiment",25,0,"2",0,0,1,0.3852,"5","2"
3,56,1,"experiment",26,0,"2",0,0,1,0.3895,"5","2"
3,57,1,"experiment",27,1,"3",6,1,1,0.4495,"5","2"
3,58,1,"experiment",28,1,"3",4,1,1,0.4347,"5","2"
3,59,1,"experiment",29,1,"3",11,1,1,0.4738,"5","2"
3,60,1,"experiment",30,1,"4",11,1,1,0.4018,"5","2"
3,61,1,"experiment",31,1,"2",6,1,1,0.4315,"5","2"
3,62,1,"experiment",32,1,"2",9,1,1,0.3793,"5","2"
3,63,1,"experiment",33,0,"3",0,0,1,0.4695,"5","2"
3,64,1,"experiment",34,0,"4",0,0,1,0.7981,"5","2"
3,65,1,"experiment",35,0,"2",0,0,1,0.4865,"5","2"
3,66,1,"experiment",36,0,"3",0,0,1,0.5337,"5","2"
3,67,1,"experiment",37,1,"2",3,1,1,0.4197,"5","2"
3,68,1,"experiment",38,0,"6",0,0,1,0.4578,"5","2"
3,69,1,"experiment",39,1,"6",10,1,1,0.4417,"5","2"
3,70,1,"experiment",40,1,"4",10,1,1,0.3775,"5","2"
3,71,1,"experiment",41,0,"2",0,0,1,0.5798,"5","2"
3,72,1,"experiment",42,0,"2",0,0,1,0.4236,"5","2"
3,73,1,"experiment",43,1,"4",8,1,1,0.5794,"5","2"
3,74,1,"experiment",44,1,"4",1,1,1,0.4935,"5","2"
3,75,1,"experiment",45,1,"6",10,1,1,0.657,"5","2"
3,76,1,"experiment",46,1,"4",4,1,1,0.664,"5","2"
3,77,1,"experiment",47,1,"3",3,1,1,0.4141,"5","2"
3,78,1,"experiment",48,1,"6",2,1,1,0.6047,"5","2"
3,79,1,"experiment",49,0,"6",0,0,1,0.5403,"5","2"
3,80,1,"experiment",50,1,"3",2,1,1,0.4812,"5","2"
3,81,1,"experiment",51,0,"4",0,0,1,0.4818,"5","2"
3,82,1,"experiment",52,1,"2",10,1,1,0.3916,"5","2"
3,83,1,"experiment",53,1,"3",9,1,1,0.8714,"5","2"
3,84,1,"experiment",54,0,"4",0,0,1,0.6058,"5","2"
3,85,1,"experiment",55,1,"6",12,1,1,0.4585,"5","2"
3,86,1,"experiment",56,1,"2",5,1,1,0.4075,"5","2"
3,87,1,"experiment",57,0,"2",0,1,0,0.4814,"5","2"
3,88,1,"experiment",58,0,"3",0,0,1,0.7804,"5","2"
3,89,1,"experiment",59,0,"3",0,0,1,0.5081,"5","2"
3,90,1,"experiment",60,1,"2",8,1,1,0.6341,"5","2"
3,91,1,"experiment",61,1,"4",7,1,1,0.5403,"5","2"
3,92,1,"experiment",62,1,"3",3,1,1,0.44,"5","2"
3,93,1,"experiment",63,0,"2",0,0,1,0.422,"5","2"
3,94,1,"experiment",64,1,"3",6,1,1,0.48,"5","2"
3,95,1,"experiment",65,1,"2",12,1,1,0.3862,"5","2"
3,96,1,"experiment",66,1,"3",9,1,1,0.4676,"5","2"
3,97,1,"experiment",67,0,"3",0,0,1,0.4935,"5","2"
3,98,1,"experiment",68,1,"3",3,1,1,0.3771,"5","2"
3,99,1,"experiment",69,0,"3",0,0,1,0.4568,"5","2"
3,100,1,"experiment",70,0,"2",0,0,1,0.4591,"5","2"
3,101,1,"experiment",71,0,"3",0,0,1,0.4397,"5","2"
3,102,1,"experiment",72,0,"4",0,0,1,0.4961,"5","2"
3,103,1,"experiment",73,0,"4",0,0,1,0.5306,"5","2"
3,104,1,"experiment",74,1,"6",3,1,1,0.4673,"5","2"
3,105,1,"experiment",75,1,"4",7,1,1,0.4355,"5","2"
3,106,1,"experiment",76,0,"2",0,0,1,0.435,"5","2"
3,107,1,"experiment",77,1,"3",8,1,1,0.9125,"5","2"
3,108,1,"experiment",78,1,"4",3,1,1,0.4794,"5","2"
3,109,1,"experiment",79,1,"6",8,1,1,0.4414,"5","2"
3,110,1,"experiment",80,1,"4",2,1,1,0.6091,"5","2"
3,111,1,"experiment",81,0,"2",0,0,1,0.4475,"5","2"
3,112,1,"experiment",82,1,"4",6,1,1,0.7046,"5","2"
3,113,1,"experiment",83,1,"3",7,1,1,0.5183,"5","2"
3,114,1,"experiment",84,0,"6",0,0,1,0.7182,"5","2"
3,115,1,"experiment",85,1,"2",11,1,1,0.5377,"5","2"
3,116,1,"experiment",86,0,"3",0,0,1,0.7146,"5","2"
3,117,1,"experiment",87,1,"4",10,1,1,0.4313,"5","2"
3,118,1,"experiment",88,1,"2",1,1,1,0.3811,"5","2"
3,119,1,"experiment",89,1,"6",1,1,1,0.5528,"5","2"
3,120,1,"experiment",90,1,"3",11,1,1,0.4341,"5","2"
3,121,1,"experiment",91,1,"4",5,1,1,0.4737,"5","2"
3,122,1,"experiment",92,1,"6",8,1,1,0.4148,"5","2"
3,123,1,"experiment",93,0,"3",0,0,1,0.4909,"5","2"
3,124,1,"experiment",94,0,"3",0,0,1,0.6041,"5","2"
3,125,1,"experiment",95,1,"2",3,1,1,0.5463,"5","2"
3,126,1,"experiment",96,1,"6",12,1,1,1.3944,"5","2"
3,127,1,"experiment",97,0,"4",0,0,1,0.5551,"5","2"
3,128,1,"experiment",98,1,"3",11,1,1,0.5737,"5","2"
3,129,1,"experiment",99,0,"2",0,0,1,0.5456,"5","2"
3,130,1,"experiment",100,1,"6",4,1,1,0.5151,"5","2"
3,131,2,"practice",1,1,"4",11,1,1,0.5582,"2","5"
3,132,2,"practice",2,0,"6",0,0,1,0.588,"2","5"
3,133,2,"practice",3,0,"6",0,0,1,0.5069,"2","5"
3,134,2,"practice",4,0,"2",0,0,1,0.4845,"2","5"
3,135,2,"practice",5,0,"3",0,0,1,0.4792,"2","5"
3,136,2,"practice",6,1,"3",2,1,1,0.4099,"2","5"
3,137,2,"practice",7,0,"4",0,0,1,0.4273,"2","5"
3,138,2,"practice",8,1,"3",9,1,1,0.4006,"2","5"
3,139,2,"practice",9,1,"3",6,1,1,0.7219,"2","5"
3,140,2,"practice",10,1,"4",9,1,1,0.5386,"2","5"
3,141,2,"practice",11,0,"3",0,0,1,0.4917,"2","5"
3,142,2,"practice",12,0,"2",0,0,1,0.45,"2","5"
3,143,2,"practice",13,1,"2",3,1,1,0.4807,"2","5"
3,144,2,"practice",14,0,"3",0,0,1,0.5555,"2","5"
3,145,2,"practice",15,0,"6",0,0,1,0.5038,"2","5"
3,146,2,"practice",16,1,"3",12,1,1,0.5546,"2","5"
3,147,2,"practice",17,1,"4",11,1,1,0.4835,"2","5"
3,148,2,"practice",18,0,"6",0,0,1,0.5051,"2","5"
3,149,2,"practice",19,0,"3",0,0,1,0.5411,"2","5"
3,150,2,"practice",20,0,"4",0,0,1,0.5559,"2","5"
3,151,2,"practice",21,1,"3",5,1,1,0.6595,"2","5"
3,152,2,"practice",22,0,"2",0,0,1,0.5448,"2","5"
3,153,2,"practice",23,0,"6",0,0,1,0.7713,"2","5"
3,154,2,"practice",24,1,"3",8,1,1,0.4798,"2","5"
3,155,2,"practice",25,0,"2",0,0,1,0.4721,"2","5"
3,156,2,"practice",26,0,"6",0,0,1,0.4444,"2","5"
3,157,2,"practice",27,1,"6",5,0,0,0.4558,"2","5"
3,158,2,"practice",28,0,"2",0,0,1,0.5175,"2","5"
3,159,2,"practice",29,1,"4",3,1,1,0.5021,"2","5"
3,160,2,"practice",30,1,"2",1,1,1,0.47,"2","5"
3,161,2,"experiment",1,1,"4",7,1,1,0.8856,"2","5"
3,162,2,"experiment",2,1,"6",8,0,0,1.151,"2","5"
3,163,2,"experiment",3,1,"2",4,1,1,0.4631,"2","5"
3,164,2,"experiment",4,0,"2",0,0,1,0.6357,"2","5"
3,165,2,"experiment",5,0,"3",0,0,1,0.5339,"2","5"
3,166,2,"experiment",6,0,"4",0,0,1,0.5379,"2","5"
3,167,2,"experiment",7,1,"3",5,1,1,0.4819,"2","5"
3,168,2,"experiment",8,1,"6",6,1,1,0.615,"2","5"
3,169,2,"experiment",9,1,"6",8,1,1,0.7018,"2","5"
3,170,2,"experiment",10,1,"3",11,1,1,0.479,"2","5"
3,171,2,"experiment",11,0,"2",0,0,1,0.7704,"2","5"
3,172,2,"experiment",12,0,"6",0,0,1,0.5182,"2","5"
3,173,2,"experiment",13,1,"2",8,1,1,0.5229,"2","5"
3,174,2,"experiment",14,1,"3",7,1,1,0.4997,"2","5"
3,175,2,"experiment",15,1,"6",6,1,1,0.8127,"2","5"
3,176,2,"experiment",16,1,"6",11,1,1,0.5561,"2","5"
3,177,2,"experiment",17,1,"6",6,1,1,0.7467,"2","5"
3,178,2,"experiment",18,0,"2",0,0,1,0.6292,"2","5"
3,179,2,"experiment",19,0,"3",0,0,1,0.5907,"2","5"
3,180,2,"experiment",20,0,"2",0,0,1,0.4466,"2","5"
3,181,2,"experiment",21,1,"6",12,1,1,0.5015,"2","5"
3,182,2,"experiment",22,0,"6",0,0,1,1.1564,"2","5"
3,183,2,"experiment",23,0,"4",0,0,1,0.5319,"2","5"
3,184,2,"experiment",24,0,"4",0,0,1,0.4932,"2","5"
3,185,2,"experiment",25,0,"2",0,0,1,0.5118,"2","5"
3,186,2,"experiment",26,1,"6",10,1,1,0.5121,"2","5"
3,187,2,"experiment",27,1,"6",12,1,1,0.5884,"2","5"
3,188,2,"experiment",28,0,"4",0,0,1,0.5395,"2","5"
3,189,2,"experiment",29,1,"2",8,1,1,0.4618,"2","5"
3,190,2,"experiment",30,1,"4",8,1,1,0.9119,"2","5"
3,191,2,"experiment",31,1,"6",8,1,1,0.8405,"2","5"
3,192,2,"experiment",32,0,"2",0,0,1,0.5231,"2","5"
3,193,2,"experiment",33,1,"3",2,1,1,0.4876,"2","5"
3,194,2,"experiment",34,1,"6",3,1,1,0.6591,"2","5"
3,195,2,"experiment",35,1,"2",5,1,1,0.5807,"2","5"
3,196,2,"experiment",36,1,"6",8,1,1,0.6311,"2","5"
3,197,2,"experiment",37,0,"6",0,0,1,0.8129,"2","5"
3,198,2,"experiment",38,1,"3",12,1,1,0.4966,"2","5"
3,199,2,"experiment",39,1,"2",8,1,1,0.5681,"2","5"
3,200,2,"experiment",40,1,"6",11,1,1,0.5584,"2","5"
3,201,2,"experiment",41,1,"4",9,1,1,0.5647,"2","5"
3,202,2,"experiment",42,0,"4",0,0,1,0.5381,"2","5"
3,203,2,"experiment",43,0,"2",0,0,1,0.4868,"2","5"
3,204,2,"experiment",44,0,"6",0,0,1,0.6253,"2","5"
3,205,2,"experiment",45,1,"6",4,1,1,0.6998,"2","5"
3,206,2,"experiment",46,0,"2",0,0,1,0.4297,"2","5"
3,207,2,"experiment",47,1,"6",1,1,1,0.5518,"2","5"
3,208,2,"experiment",48,1,"6",3,1,1,0.715,"2","5"
3,209,2,"experiment",49,1,"3",2,1,1,0.6016,"2","5"
3,210,2,"experiment",50,1,"6",10,1,1,0.5955,"2","5"
3,211,2,"experiment",51,0,"4",0,0,1,0.5692,"2","5"
3,212,2,"experiment",52,1,"6",11,1,1,0.5191,"2","5"
3,213,2,"experiment",53,0,"6",0,0,1,0.6541,"2","5"
3,214,2,"experiment",54,1,"2",8,1,1,1.0842,"2","5"
3,215,2,"experiment",55,1,"2",1,1,1,0.4666,"2","5"
3,216,2,"experiment",56,0,"3",0,0,1,0.4975,"2","5"
3,217,2,"experiment",57,0,"4",0,0,1,0.4364,"2","5"
3,218,2,"experiment",58,1,"2",11,1,1,0.5798,"2","5"
3,219,2,"experiment",59,1,"4",9,1,1,0.4793,"2","5"
3,220,2,"experiment",60,0,"2",0,0,1,0.4721,"2","5"
3,221,2,"experiment",61,0,"3",0,0,1,0.4784,"2","5"
3,222,2,"experiment",62,1,"6",8,1,1,0.4723,"2","5"
3,223,2,"experiment",63,0,"4",0,0,1,0.5104,"2","5"
3,224,2,"experiment",64,1,"3",11,1,1,0.5869,"2","5"
3,225,2,"experiment",65,1,"6",2,1,1,0.7216,"2","5"
3,226,2,"experiment",66,0,"2",0,0,1,0.8896,"2","5"
3,227,2,"experiment",67,0,"3",0,0,1,0.4738,"2","5"
3,228,2,"experiment",68,0,"4",0,0,1,0.4777,"2","5"
3,229,2,"experiment",69,1,"6",4,1,1,0.4494,"2","5"
3,230,2,"experiment",70,0,"4",0,0,1,0.5886,"2","5"
3,231,2,"experiment",71,1,"3",12,1,1,0.5879,"2","5"
3,232,2,"experiment",72,1,"2",12,1,1,0.567,"2","5"
3,233,2,"experiment",73,0,"4",0,0,1,0.5068,"2","5"
3,234,2,"experiment",74,0,"4",0,0,1,0.5857,"2","5"
3,235,2,"experiment",75,1,"2",10,1,1,0.4648,"2","5"
3,236,2,"experiment",76,0,"3",0,0,1,0.5234,"2","5"
3,237,2,"experiment",77,1,"6",11,1,1,0.6645,"2","5"
3,238,2,"experiment",78,0,"4",0,0,1,0.9386,"2","5"
3,239,2,"experiment",79,0,"3",0,0,1,0.4075,"2","5"
3,240,2,"experiment",80,1,"3",3,1,1,0.4562,"2","5"
3,241,2,"experiment",81,0,"3",0,0,1,0.459,"2","5"
3,242,2,"experiment",82,0,"6",0,0,1,0.5199,"2","5"
3,243,2,"experiment",83,1,"2",3,1,1,0.389,"2","5"
3,244,2,"experiment",84,1,"4",6,1,1,0.5011,"2","5"
3,245,2,"experiment",85,0,"3",0,0,1,0.4879,"2","5"
3,246,2,"experiment",86,0,"3",0,0,1,0.5073,"2","5"
3,247,2,"experiment",87,0,"4",0,0,1,0.6476,"2","5"
3,248,2,"experiment",88,0,"4",0,0,1,0.5216,"2","5"
3,249,2,"experiment",89,0,"4",0,0,1,0.5145,"2","5"
3,250,2,"experiment",90,0,"2",0,0,1,0.4296,"2","5"
3,251,2,"experiment",91,1,"3",1,1,1,0.4312,"2","5"
3,252,2,"experiment",92,1,"4",10,1,1,0.4379,"2","5"
3,253,2,"experiment",93,0,"3",0,0,1,0.5462,"2","5"
3,254,2,"experiment",94,0,"3",0,0,1,0.4902,"2","5"
3,255,2,"experiment",95,0,"4",0,0,1,0.5662,"2","5"
3,256,2,"experiment",96,0,"3",0,0,1,0.5325,"2","5"
3,257,2,"experiment",97,1,"2",6,1,1,0.4853,"2","5"
3,258,2,"experiment",98,0,"4",0,0,1,0.5511,"2","5"
3,259,2,"experiment",99,1,"6",9,1,1,0.4844,"2","5"
3,260,2,"experiment",100,1,"2",3,1,1,0.3883,"2","5"
3,261,3,"practice",1,1,"2",2,1,1,0.3672,"2","5"
3,262,3,"practice",2,1,"2",9,1,1,0.3658,"2","5"
3,263,3,"practice",3,1,"6",9,1,1,0.5715,"2","5"
3,264,3,"practice",4,1,"4",4,1,1,0.3931,"2","5"
3,265,3,"practice",5,0,"6",0,0,1,0.4378,"2","5"
3,266,3,"practice",6,0,"6",0,0,1,0.4714,"2","5"
3,267,3,"practice",7,0,"2",0,0,1,0.3742,"2","5"
3,268,3,"practice",8,0,"3",0,0,1,0.4157,"2","5"
3,269,3,"practice",9,1,"6",6,1,1,0.623,"2","5"
3,270,3,"practice",10,1,"2",12,1,1,0.4308,"2","5"
3,271,3,"practice",11,0,"4",0,0,1,0.4531,"2","5"
3,272,3,"practice",12,0,"6",0,0,1,0.4804,"2","5"
3,273,3,"practice",13,1,"3",6,1,1,0.463,"2","5"
3,274,3,"practice",14,1,"3",8,1,1,0.4641,"2","5"
3,275,3,"practice",15,0,"3",0,0,1,0.5015,"2","5"
3,276,3,"practice",16,0,"3",0,0,1,0.6733,"2","5"
3,277,3,"practice",17,0,"2",0,0,1,0.4679,"2","5"
3,278,3,"practice",18,1,"4",1,1,1,0.4383,"2","5"
3,279,3,"practice",19,0,"6",0,0,1,0.4075,"2","5"
3,280,3,"practice",20,0,"4",0,0,1,0.4709,"2","5"
3,281,3,"practice",21,1,"2",4,1,1,0.3828,"2","5"
3,282,3,"practice",22,0,"4",0,0,1,0.439,"2","5"
3,283,3,"practice",23,0,"3",0,0,1,0.5245,"2","5"
3,284,3,"practice",24,0,"2",0,0,1,0.4137,"2","5"
3,285,3,"practice",25,1,"6",7,1,1,0.7069,"2","5"
3,286,3,"practice",26,1,"2",11,1,1,0.5043,"2","5"
3,287,3,"practice",27,1,"2",2,1,1,0.3794,"2","5"
3,288,3,"practice",28,0,"6",0,0,1,0.7307,"2","5"
3,289,3,"practice",29,1,"4",9,1,1,0.498,"2","5"
3,290,3,"practice",30,0,"3",0,0,1,0.5085,"2","5"
3,291,3,"experiment",1,1,"3",9,1,1,0.3891,"2","5"
3,292,3,"experiment",2,0,"3",0,0,1,0.4839,"2","5"
3,293,3,"experiment",3,1,"6",12,1,1,0.4565,"2","5"
3,294,3,"experiment",4,1,"4",9,1,1,0.4682,"2","5"
3,295,3,"experiment",5,0,"2",0,0,1,0.4842,"2","5"
3,296,3,"experiment",6,0,"3",0,0,1,0.4708,"2","5"
3,297,3,"experiment",7,0,"2",0,0,1,0.425,"2","5"
3,298,3,"experiment",8,0,"6",0,0,1,0.5301,"2","5"
3,299,3,"experiment",9,1,"3",1,1,1,0.4046,"2","5"
3,300,3,"experiment",10,0,"6",0,0,1,0.5186,"2","5"
3,301,3,"experiment",11,0,"6",0,1,0,0.6417,"2","5"
3,302,3,"experiment",12,0,"3",0,0,1,0.5917,"2","5"
3,303,3,"experiment",13,0,"4",0,0,1,0.6208,"2","5"
3,304,3,"experiment",14,1,"2",7,1,1,0.6749,"2","5"
3,305,3,"experiment",15,0,"6",0,0,1,0.6075,"2","5"
3,306,3,"experiment",16,0,"3",0,0,1,0.5205,"2","5"
3,307,3,"experiment",17,0,"6",0,0,1,0.4682,"2","5"
3,308,3,"experiment",18,1,"4",11,1,1,0.4834,"2","5"
3,309,3,"experiment",19,1,"2",1,1,1,0.8508,"2","5"
3,310,3,"experiment",20,0,"6",0,0,1,0.5244,"2","5"
3,311,3,"experiment",21,0,"4",0,0,1,0.4912,"2","5"
3,312,3,"experiment",22,0,"4",0,0,1,0.5331,"2","5"
3,313,3,"experiment",23,0,"3",0,0,1,0.533,"2","5"
3,314,3,"experiment",24,1,"6",3,1,1,0.5707,"2","5"
3,315,3,"experiment",25,1,"4",10,1,1,0.5265,"2","5"
3,316,3,"experiment",26,1,"4",9,1,1,0.5093,"2","5"
3,317,3,"experiment",27,0,"3",0,0,1,0.7422,"2","5"
3,318,3,"experiment",28,0,"3",0,0,1,0.6565,"2","5"
3,319,3,"experiment",29,1,"2",2,1,1,0.4512,"2","5"
3,320,3,"experiment",30,1,"4",3,1,1,0.4738,"2","5"
3,321,3,"experiment",31,1,"3",4,1,1,0.4596,"2","5"
3,322,3,"experiment",32,0,"6",0,0,1,0.5684,"2","5"
3,323,3,"experiment",33,0,"4",0,0,1,0.4912,"2","5"
3,324,3,"experiment",34,0,"6",0,0,1,0.4878,"2","5"
3,325,3,"experiment",35,1,"3",6,1,1,0.4607,"2","5"
3,326,3,"experiment",36,1,"4",6,1,1,0.6195,"2","5"
3,327,3,"experiment",37,0,"3",0,0,1,0.4727,"2","5"
3,328,3,"experiment",38,0,"2",0,0,1,0.5395,"2","5"
3,329,3,"experiment",39,1,"3",11,1,1,0.424,"2","5"
3,330,3,"experiment",40,1,"6",4,1,1,0.62,"2","5"
3,331,3,"experiment",41,1,"6",9,1,1,0.5043,"2","5"
3,332,3,"experiment",42,0,"3",0,0,1,0.4925,"2","5"
3,333,3,"experiment",43,0,"4",0,0,1,0.5758,"2","5"
3,334,3,"experiment",44,0,"6",0,0,1,0.45,"2","5"
3,335,3,"experiment",45,1,"3",8,1,1,0.457,"2","5"
3,336,3,"experiment",46,0,"2",0,0,1,0.5519,"2","5"
3,337,3,"experiment",47,0,"3",0,0,1,0.417,"2","5"
3,338,3,"experiment",48,1,"4",10,1,1,0.4801,"2","5"
3,339,3,"experiment",49,1,"2",11,1,1,0.4148,"2","5"
3,340,3,"experiment",50,0,"4",0,0,1,0.4406,"2","5"
3,341,3,"experiment",51,1,"3",6,1,1,0.4774,"2","5"
3,342,3,"experiment",52,1,"4",12,1,1,0.445,"2","5"
3,343,3,"experiment",53,0,"3",0,0,1,0.4836,"2","5"
3,344,3,"experiment",54,0,"2",0,0,1,0.4567,"2","5"
3,345,3,"experiment",55,0,"3",0,0,1,0.7511,"2","5"
3,346,3,"experiment",56,0,"3",0,0,1,0.5475,"2","5"
3,347,3,"experiment",57,0,"6",0,0,1,0.5648,"2","5"
3,348,3,"experiment",58,0,"2",0,0,1,0.5538,"2","5"
3,349,3,"experiment",59,1,"2",5,1,1,0.4706,"2","5"
3,350,3,"experiment",60,1,"4",10,1,1,0.4398,"2","5"
3,351,3,"experiment",61,0,"2",0,0,1,0.4075,"2","5"
3,352,3,"experiment",62,0,"4",0,0,1,0.4183,"2","5"
3,353,3,"experiment",63,1,"3",5,1,1,0.4681,"2","5"
3,354,3,"experiment",64,1,"2",5,1,1,0.4018,"2","5"
3,355,3,"experiment",65,1,"4",4,1,1,0.4948,"2","5"
3,356,3,"experiment",66,1,"6",9,1,1,0.441,"2","5"
3,357,3,"experiment",67,1,"3",9,1,1,0.3758,"2","5"
3,358,3,"experiment",68,0,"2",0,0,1,0.4986,"2","5"
3,359,3,"experiment",69,1,"2",12,1,1,0.4945,"2","5"
3,360,3,"experiment",70,1,"6",10,1,1,0.5021,"2","5"
3,361,3,"experiment",71,0,"6",0,0,1,0.5526,"2","5"
3,362,3,"experiment",72,0,"4",0,0,1,0.5819,"2","5"
3,363,3,"experiment",73,0,"4",0,0,1,0.8296,"2","5"
3,364,3,"experiment",74,1,"2",5,1,1,0.3746,"2","5"
3,365,3,"experiment",75,1,"2",5,1,1,0.4562,"2","5"
3,366,3,"experiment",76,0,"4",0,0,1,0.5357,"2","5"
3,367,3,"experiment",77,1,"4",11,1,1,0.5672,"2","5"
3,368,3,"experiment",78,0,"3",0,0,1,0.6699,"2","5"
3,369,3,"experiment",79,0,"2",0,0,1,0.4008,"2","5"
3,370,3,"experiment",80,0,"4",0,0,1,0.3713,"2","5"
3,371,3,"experiment",81,0,"2",0,0,1,0.4131,"2","5"
3,372,3,"experiment",82,0,"3",0,0,1,0.4492,"2","5"
3,373,3,"experiment",83,1,"3",1,1,1,0.3818,"2","5"
3,374,3,"experiment",84,1,"3",11,1,1,0.4881,"2","5"
3,375,3,"experiment",85,0,"2",0,0,1,0.4492,"2","5"
3,376,3,"experiment",86,1,"4",7,1,1,0.8894,"2","5"
3,377,3,"experiment",87,1,"2",4,1,1,0.4292,"2","5"
3,378,3,"experiment",88,0,"2",0,0,1,0.5374,"2","5"
3,379,3,"experiment",89,1,"2",7,1,1,0.483,"2","5"
3,380,3,"experiment",90,1,"3",7,1,1,0.9454,"2","5"
3,381,3,"experiment",91,0,"2",0,0,1,0.5372,"2","5"
3,382,3,"experiment",92,0,"2",0,0,1,0.5933,"2","5"
3,383,3,"experiment",93,0,"2",0,0,1,0.5121,"2","5"
3,384,3,"experiment",94,0,"2",0,0,1,0.9602,"2","5"
3,385,3,"experiment",95,1,"4",2,1,1,0.6386,"2","5"
3,386,3,"experiment",96,0,"6",0,0,1,0.5607,"2","5"
3,387,3,"experiment",97,1,"3",8,1,1,0.4358,"2","5"
3,388,3,"experiment",98,0,"6",0,0,1,0.4629,"2","5"
3,389,3,"experiment",99,1,"6",10,1,1,0.5526,"2","5"
3,390,3,"experiment",100,1,"4",12,1,1,0.5313,"2","5"
3,391,4,"practice",1,0,"2",0,0,1,0.6423,"5","2"
3,392,4,"practice",2,1,"2",5,1,1,0.3606,"5","2"
3,393,4,"practice",3,0,"4",0,0,1,0.4193,"5","2"
3,394,4,"practice",4,0,"6",0,0,1,0.4505,"5","2"
3,395,4,"practice",5,0,"6",0,0,1,0.446,"5","2"
3,396,4,"practice",6,0,"3",0,0,1,0.4201,"5","2"
3,397,4,"practice",7,1,"3",2,1,1,0.4218,"5","2"
3,398,4,"practice",8,1,"2",12,1,1,0.4178,"5","2"
3,399,4,"practice",9,0,"3",0,0,1,0.4701,"5","2"
3,400,4,"practice",10,1,"4",3,1,1,0.873,"5","2"
3,401,4,"practice",11,0,"6",0,0,1,0.4764,"5","2"
3,402,4,"practice",12,0,"4",0,0,1,0.4429,"5","2"
3,403,4,"practice",13,1,"2",8,1,1,0.449,"5","2"
3,404,4,"practice",14,0,"4",0,0,1,0.4782,"5","2"
3,405,4,"practice",15,0,"2",0,0,1,0.4709,"5","2"
3,406,4,"practice",16,0,"2",0,0,1,0.4305,"5","2"
3,407,4,"practice",17,1,"3",1,1,1,0.9031,"5","2"
3,408,4,"practice",18,1,"6",12,1,1,0.603,"5","2"
3,409,4,"practice",19,0,"6",0,0,1,0.4506,"5","2"
3,410,4,"practice",20,0,"2",0,0,1,0.4068,"5","2"
3,411,4,"practice",21,1,"4",6,1,1,0.5955,"5","2"
3,412,4,"practice",22,0,"2",0,0,1,0.3906,"5","2"
3,413,4,"practice",23,0,"2",0,0,1,0.4349,"5","2"
3,414,4,"practice",24,0,"3",0,0,1,0.4718,"5","2"
3,415,4,"practice",25,0,"6",0,0,1,0.4373,"5","2"
3,416,4,"practice",26,0,"2",0,0,1,0.4259,"5","2"
3,417,4,"practice",27,0,"4",0,0,1,0.4802,"5","2"
3,418,4,"practice",28,0,"4",0,0,1,0.5883,"5","2"
3,419,4,"practice",29,0,"4",0,0,1,0.4398,"5","2"
3,420,4,"practice",30,1,"4",10,1,1,0.5033,"5","2"
3,421,4,"experiment",1,0,"4",0,0,1,0.4278,"5","2"
3,422,4,"experiment",2,1,"3",2,1,1,0.449,"5","2"
3,423,4,"experiment",3,1,"6",10,1,1,0.4076,"5","2"
3,424,4,"experiment",4,0,"2",0,0,1,0.3905,"5","2"
3,425,4,"experiment",5,1,"6",5,1,1,0.7373,"5","2"
3,426,4,"experiment",6,1,"3",9,1,1,0.387,"5","2"
3,427,4,"experiment",7,1,"3",8,1,1,0.4208,"5","2"
3,428,4,"experiment",8,1,"2",9,1,1,0.3803,"5","2"
3,429,4,"experiment",9,0,"4",0,0,1,0.4435,"5","2"
3,430,4,"experiment",10,1,"3",6,1,1,0.5333,"5","2"
3,431,4,"experiment",11,1,"3",3,1,1,0.4561,"5","2"
3,432,4,"experiment",12,0,"2",0,0,1,0.3943,"5","2"
3,433,4,"experiment",13,1,"3",4,1,1,0.4291,"5","2"
3,434,4,"experiment",14,1,"2",5,1,1,0.5234,"5","2"
3,435,4,"experiment",15,0,"4",0,0,1,0.5054,"5","2"
3,436,4,"experiment",16,1,"2",9,1,1,0.5375,"5","2"
3,437,4,"experiment",17,0,"4",0,0,1,0.5194,"5","2"
3,438,4,"experiment",18,0,"4",0,0,1,0.383,"5","2"
3,439,4,"experiment",19,0,"2",0,0,1,0.4676,"5","2"
3,440,4,"experiment",20,1,"6",9,1,1,0.9231,"5","2"
3,441,4,"experiment",21,0,"2",0,0,1,0.4488,"5","2"
3,442,4,"experiment",22,0,"6",0,0,1,0.5487,"5","2"
3,443,4,"experiment",23,0,"6",0,0,1,0.4185,"5","2"
3,444,4,"experiment",24,0,"6",0,0,1,0.6123,"5","2"
3,445,4,"experiment",25,0,"3",0,0,1,0.593,"5","2"
3,446,4,"experiment",26,0,"2",0,0,1,0.4102,"5","2"
3,447,4,"experiment",27,1,"3",5,1,1,0.4884,"5","2"
3,448,4,"experiment",28,0,"3",0,0,1,0.4293,"5","2"
3,449,4,"experiment",29,1,"6",7,1,1,0.475,"5","2"
3,450,4,"experiment",30,0,"6",0,0,1,0.5121,"5","2"
3,451,4,"experiment",31,0,"6",0,0,1,0.4896,"5","2"
3,452,4,"experiment",32,0,"6",0,0,1,0.652,"5","2"
3,453,4,"experiment",33,1,"4",9,1,1,0.4497,"5","2"
3,454,4,"experiment",34,0,"3",0,0,1,0.4414,"5","2"
3,455,4,"experiment",35,0,"2",0,0,1,0.4014,"5","2"
3,456,4,"experiment",36,1,"2",4,1,1,0.4072,"5","2"
3,457,4,"experiment",37,1,"3",3,1,1,0.4074,"5","2"
3,458,4,"experiment",38,0,"4",0,0,1,0.4484,"5","2"
3,459,4,"experiment",39,0,"2",0,0,1,0.4233,"5","2"
3,460,4,"experiment",40,1,"4",12,1,1,0.473,"5","2"
3,461,4,"experiment",41,0,"4",0,0,1,0.5821,"5","2"
3,462,4,"experiment",42,1,"2",11,1,1,0.4968,"5","2"
3,463,4,"experiment",43,1,"2",2,1,1,0.4119,"5","2"
3,464,4,"experiment",44,1,"3",1,1,1,0.3951,"5","2"
3,465,4,"experiment",45,0,"2",0,0,1,0.5066,"5","2"
3,466,4,"experiment",46,0,"6",0,0,1,0.5176,"5","2"
3,467,4,"experiment",47,0,"2",0,0,1,0.4768,"5","2"
3,468,4,"experiment",48,0,"6",0,0,1,0.4593,"5","2"
3,469,4,"experiment",49,1,"2",9,1,1,0.4371,"5","2"
3,470,4,"experiment",50,0,"6",0,0,1,0.4504,"5","2"
3,471,4,"experiment",51,1,"3",9,1,1,0.3887,"5","2"
3,472,4,"experiment",52,0,"4",0,0,1,0.4437,"5","2"
3,473,4,"experiment",53,1,"4",12,1,1,0.4183,"5","2"
3,474,4,"experiment",54,1,"6",6,1,1,0.621,"5","2"
3,475,4,"experiment",55,0,"4",0,0,1,0.4955,"5","2"
3,476,4,"experiment",56,1,"2",2,1,1,0.526,"5","2"
3,477,4,"experiment",57,0,"4",0,0,1,0.4066,"5","2"
3,478,4,"experiment",58,0,"4",0,0,1,0.5482,"5","2"
3,479,4,"experiment",59,1,"3",12,1,1,0.658,"5","2"
3,480,4,"experiment",60,1,"4",3,1,1,0.5075,"5","2"
3,481,4,"experiment",61,0,"2",0,0,1,0.5987,"5","2"
3,482,4,"experiment",62,0,"6",0,0,1,0.5096,"5","2"
3,483,4,"experiment",63,1,"2",9,1,1,0.9485,"5","2"
3,484,4,"experiment",64,0,"3",0,0,1,0.409,"5","2"
3,485,4,"experiment",65,0,"3",0,0,1,0.3974,"5","2"
3,486,4,"experiment",66,1,"3",1,1,1,0.3894,"5","2"
3,487,4,"experiment",67,0,"3",0,0,1,0.4641,"5","2"
3,488,4,"experiment",68,1,"2",1,1,1,0.9374,"5","2"
3,489,4,"experiment",69,0,"4",0,0,1,0.4116,"5","2"
3,490,4,"experiment",70,1,"2",9,1,1,0.3794,"5","2"
3,491,4,"experiment",71,0,"4",0,0,1,0.4622,"5","2"
3,492,4,"experiment",72,1,"4",4,1,1,0.5923,"5","2"
3,493,4,"experiment",73,1,"2",1,1,1,0.974,"5","2"
3,494,4,"experiment",74,0,"3",0,0,1,0.5319,"5","2"
3,495,4,"experiment",75,0,"6",0,0,1,0.6155,"5","2"
3,496,4,"experiment",76,0,"4",0,0,1,0.393,"5","2"
3,497,4,"experiment",77,1,"6",2,1,1,0.7112,"5","2"
3,498,4,"experiment",78,1,"2",12,1,1,0.4515,"5","2"
3,499,4,"experiment",79,0,"6",0,0,1,0.4678,"5","2"
3,500,4,"experiment",80,0,"2",0,0,1,0.4577,"5","2"
3,501,4,"experiment",81,0,"4",0,0,1,0.4359,"5","2"
3,502,4,"experiment",82,0,"3",0,0,1,0.4673,"5","2"
3,503,4,"experiment",83,1,"6",11,1,1,0.5478,"5","2"
3,504,4,"experiment",84,1,"6",11,1,1,0.4151,"5","2"
3,505,4,"experiment",85,0,"2",0,0,1,0.4793,"5","2"
3,506,4,"experiment",86,0,"3",0,0,1,0.5213,"5","2"
3,507,4,"experiment",87,1,"3",1,1,1,0.4035,"5","2"
3,508,4,"experiment",88,0,"6",0,0,1,0.5452,"5","2"
3,509,4,"experiment",89,0,"4",0,0,1,0.7357,"5","2"
3,510,4,"experiment",90,1,"4",4,1,1,0.4055,"5","2"
3,511,4,"experiment",91,0,"4",0,0,1,0.4791,"5","2"
3,512,4,"experiment",92,1,"2",7,1,1,0.4274,"5","2"
3,513,4,"experiment",93,1,"4",11,1,1,0.6137,"5","2"
3,514,4,"experiment",94,0,"3",0,0,1,0.6556,"5","2"
3,515,4,"experiment",95,0,"6",0,0,1,0.5962,"5","2"
3,516,4,"experiment",96,1,"2",8,1,1,0.4506,"5","2"
3,517,4,"experiment",97,0,"2",0,0,1,0.3894,"5","2"
3,518,4,"experiment",98,1,"6",3,1,1,1.5093,"5","2"
3,519,4,"experiment",99,0,"3",0,0,1,0.4743,"5","2"
3,520,4,"experiment",100,0,"3",0,0,1,0.413,"5","2"
4,1,1,"practice",1,0,"2",0,-1,0,2.0029,"6","9"
4,2,1,"practice",2,1,"4",8,0,0,1.9374,"6","9"
4,3,1,"practice",3,0,"6",0,-1,0,2.0029,"6","9"
4,4,1,"practice",4,1,"2",9,0,0,1.3322,"6","9"
4,5,1,"practice",5,0,"3",0,-1,0,2.0009,"6","9"
4,6,1,"practice",6,0,"3",0,1,0,0.5713,"6","9"
4,7,1,"practice",7,1,"2",4,1,1,0.5108,"6","9"
4,8,1,"practice",8,1,"6",4,1,1,1.0166,"6","9"
4,9,1,"practice",9,1,"2",2,1,1,1.1311,"6","9"
4,10,1,"practice",10,1,"4",3,1,1,1.1105,"6","9"
4,11,1,"practice",11,0,"3",0,1,0,0.8696,"6","9"
4,12,1,"practice",12,0,"2",0,1,0,1.4128,"6","9"
4,13,1,"practice",13,1,"6",7,0,0,1.0855,"6","9"
4,14,1,"practice",14,1,"2",2,1,1,1.8383,"6","9"
4,15,1,"practice",15,1,"4",3,-1,0,2.0058,"6","9"
4,16,1,"practice",16,1,"3",4,-1,0,2.0032,"6","9"
4,17,1,"practice",17,1,"6",11,-1,0,2.0002,"6","9"
4,18,1,"practice",18,1,"3",8,-1,0,2.0026,"6","9"
4,19,1,"practice",19,0,"4",0,-1,0,2.0016,"6","9"
4,20,1,"practice",20,0,"4",0,1,0,0.9536,"6","9"
4,21,1,"practice",21,0,"2",0,1,0,1.4293,"6","9"
4,22,1,"practice",22,1,"4",10,1,1,1.7829,"6","9"
4,23,1,"practice",23,0,"4",0,0,1,1.0567,"6","9"
4,24,1,"practice",24,0,"2",0,0,1,1.1676,"6","9"
4,25,1,"practice",25,0,"3",0,0,1,0.7177,"6","9"
4,26,1,"practice",26,0,"2",0,0,1,1.0866,"6","9"
4,27,1,"practice",27,0,"6",0,0,1,1.305,"6","9"
4,28,1,"practice",28,0,"6",0,0,1,1.0392,"6","9"
4,29,1,"practice",29,0,"3",0,0,1,0.7815,"6","9"
4,30,1,"practice",30,0,"3",0,0,1,0.7501,"6","9"
4,31,1,"experiment",1,0,"3",0,1,0,1.3516,"6","9"
4,32,1,"experiment",2,1,"4",3,0,0,0.9083,"6","9"
4,33,1,"experiment",3,0,"3",0,1,0,0.8704,"6","9"
4,34,1,"experiment",4,1,"3",6,0,0,0.7042,"6","9"
4,35,1,"experiment",5,0,"4",0,1,0,1.4192,"6","9"
4,36,1,"experiment",6,0,"6",0,-1,0,2.0062,"6","9"
4,37,1,"experiment",7,0,"4",0,0,1,0.9393,"6","9"
4,38,1,"experiment",8,1,"6",2,1,1,0.6218,"6","9"
4,39,1,"experiment",9,1,"2",7,1,1,0.7727,"6","9"
4,40,1,"experiment",10,1,"6",5,1,1,0.8384,"6","9"
4,41,1,"experiment",11,1,"4",5,1,1,0.6706,"6","9"
4,42,1,"experiment",12,0,"3",0,0,1,0.9368,"6","9"
4,43,1,"experiment",13,0,"6",0,0,1,0.7354,"6","9"
4,44,1,"experiment",14,1,"2",7,1,1,0.6,"6","9"
4,45,1,"experiment",15,1,"6",7,1,1,0.6688,"6","9"
4,46,1,"experiment",16,0,"3",0,0,1,0.7436,"6","9"
4,47,1,"experiment",17,0,"6",0,0,1,0.6549,"6","9"
4,48,1,"experiment",18,1,"6",6,1,1,0.6382,"6","9"
4,49,1,"experiment",19,1,"6",5,1,1,0.5893,"6","9"
4,50,1,"experiment",20,0,"6",0,0,1,0.9762,"6","9"
4,51,1,"experiment",21,1,"2",10,1,1,0.6258,"6","9"
4,52,1,"experiment",22,0,"6",0,0,1,0.6732,"6","9"
4,53,1,"experiment",23,1,"2",3,1,1,0.5245,"6","9"
4,54,1,"experiment",24,0,"2",0,0,1,0.764,"6","9"
4,55,1,"experiment",25,0,"6",0,0,1,0.8532,"6","9"
4,56,1,"experiment",26,0,"6",0,0,1,0.6871,"6","9"
4,57,1,"experiment",27,0,"3",0,0,1,0.5156,"6","9"
4,58,1,"experiment",28,0,"4",0,0,1,0.6023,"6","9"
4,59,1,"experiment",29,1,"3",10,1,1,0.5032,"6","9"
4,60,1,"experiment",30,0,"4",0,0,1,0.6177,"6","9"
4,61,1,"experiment",31,1,"3",11,1,1,0.6485,"6","9"
4,62,1,"experiment",32,1,"2",10,1,1,0.6875,"6","9"
4,63,1,"experiment",33,0,"3",0,0,1,0.6476,"6","9"
4,64,1,"experiment",34,1,"4",11,0,0,0.8202,"6","9"
4,65,1,"experiment",35,1,"3",4,1,1,0.6343,"6","9"
4,66,1,"experiment",36,1,"2",4,1,1,0.4971,"6","9"
4,67,1,"experiment",37,0,"2",0,0,1,0.6827,"6","9"
4,68,1,"experiment",38,1,"2",6,1,1,0.6484,"6","9"
4,69,1,"experiment",39,1,"3",9,1,1,0.7002,"6","9"
4,70,1,"experiment",40,1,"2",9,1,1,0.4898,"6","9"
4,71,1,"experiment",41,0,"2",0,0,1,0.4938,"6","9"
4,72,1,"experiment",42,1,"4",9,1,1,0.6634,"6","9"
4,73,1,"experiment",43,1,"6",4,1,1,0.9462,"6","9"
4,74,1,"experiment",44,1,"3",5,1,1,0.5269,"6","9"
4,75,1,"experiment",45,0,"3",0,0,1,0.8016,"6","9"
4,76,1,"experiment",46,1,"3",11,1,1,0.4768,"6","9"
4,77,1,"experiment",47,0,"4",0,0,1,0.8011,"6","9"
4,78,1,"experiment",48,1,"2",9,1,1,0.6026,"6","9"
4,79,1,"experiment",49,0,"6",0,0,1,0.6936,"6","9"
4,80,1,"experiment",50,0,"2",0,0,1,0.6934,"6","9"
4,81,1,"experiment",51,1,"3",6,1,1,0.586,"6","9"
4,82,1,"experiment",52,1,"2",2,1,1,1.1057,"6","9"
4,83,1,"experiment",53,1,"6",12,1,1,0.6921,"6","9"
4,84,1,"experiment",54,0,"4",0,0,1,0.6091,"6","9"
4,85,1,"experiment",55,0,"4",0,0,1,0.5655,"6","9"
4,86,1,"experiment",56,0,"3",0,0,1,1.1024,"6","9"
4,87,1,"experiment",57,1,"3",5,1,1,0.5349,"6","9"
4,88,1,"experiment",58,1,"2",5,1,1,0.6276,"6","9"
4,89,1,"experiment",59,1,"6",2,1,1,0.8971,"6","9"
4,90,1,"experiment",60,1,"4",8,1,1,0.7999,"6","9"
4,91,1,"experiment",61,0,"4",0,0,1,0.8462,"6","9"
4,92,1,"experiment",62,0,"2",0,0,1,0.8333,"6","9"
4,93,1,"experiment",63,1,"3",7,1,1,0.5917,"6","9"
4,94,1,"experiment",64,0,"2",0,0,1,0.7595,"6","9"
4,95,1,"experiment",65,0,"4",0,0,1,0.811,"6","9"
4,96,1,"experiment",66,1,"6",8,1,1,1.0863,"6","9"
4,97,1,"experiment",67,1,"4",9,1,1,0.7718,"6","9"
4,98,1,"experiment",68,1,"6",7,1,1,0.6618,"6","9"
4,99,1,"experiment",69,0,"6",0,0,1,0.6932,"6","9"
4,100,1,"experiment",70,1,"6",3,1,1,0.9188,"6","9"
4,101,1,"experiment",71,1,"2",7,1,1,0.6553,"6","9"
4,102,1,"experiment",72,0,"3",0,0,1,0.768,"6","9"
4,103,1,"experiment",73,0,"6",0,0,1,0.7615,"6","9"
4,104,1,"experiment",74,0,"6",0,0,1,0.8488,"6","9"
4,105,1,"experiment",75,1,"6",7,1,1,0.6312,"6","9"
4,106,1,"experiment",76,1,"6",4,1,1,1.1396,"6","9"
4,107,1,"experiment",77,0,"2",0,0,1,0.6875,"6","9"
4,108,1,"experiment",78,1,"2",12,1,1,0.4922,"6","9"
4,109,1,"experiment",79,1,"2",2,1,1,0.5692,"6","9"
4,110,1,"experiment",80,1,"3",6,1,1,0.6704,"6","9"
4,111,1,"experiment",81,0,"6",0,0,1,0.756,"6","9"
4,112,1,"experiment",82,0,"6",0,0,1,0.8355,"6","9"
4,113,1,"experiment",83,0,"4",0,0,1,0.7839,"6","9"
4,114,1,"experiment",84,0,"3",0,0,1,0.7035,"6","9"
4,115,1,"experiment",85,0,"6",0,0,1,0.8695,"6","9"
4,116,1,"experiment",86,0,"2",0,0,1,0.5268,"6","9"
4,117,1,"experiment",87,0,"4",0,0,1,0.9215,"6","9"
4,118,1,"experiment",88,0,"4",0,0,1,0.7069,"6","9"
4,119,1,"experiment",89,0,"4",0,0,1,0.4638,"6","9"
4,120,1,"experiment",90,0,"6",0,0,1,0.7765,"6","9"
4,121,1,"experiment",91,1,"3",5,1,1,0.8374,"6","9"
4,122,1,"experiment",92,1,"2",3,1,1,0.4687,"6","9"
4,123,1,"experiment",93,0,"3",0,0,1,0.5857,"6","9"
4,124,1,"experiment",94,1,"2",4,1,1,0.4915,"6","9"
4,125,1,"experiment",95,1,"3",7,1,1,0.6351,"6","9"
4,126,1,"experiment",96,0,"2",0,0,1,0.5253,"6","9"
4,127,1,"experiment",97,0,"6",0,0,1,1.0869,"6","9"
4,128,1,"experiment",98,0,"2",0,0,1,0.5181,"6","9"
4,129,1,"experiment",99,0,"6",0,0,1,0.5382,"6","9"
4,130,1,"experiment",100,0,"2",0,0,1,0.5578,"6","9"
4,131,2,"practice",1,0,"3",0,0,1,0.9275,"9","6"
4,132,2,"practice",2,1,"6",7,1,1,1.0479,"9","6"
4,133,2,"practice",3,0,"4",0,0,1,0.7898,"9","6"
4,134,2,"practice",4,0,"3",0,0,1,0.7324,"9","6"
4,135,2,"practice",5,1,"3",8,1,1,0.676,"9","6"
4,136,2,"practice",6,0,"3",0,0,1,0.7462,"9","6"
4,137,2,"practice",7,0,"4",0,0,1,1.0174,"9","6"
4,138,2,"practice",8,0,"6",0,0,1,0.7256,"9","6"
4,139,2,"practice",9,0,"6",0,0,1,0.581,"9","6"
4,140,2,"practice",10,1,"2",5,1,1,0.6617,"9","6"
4,141,2,"practice",11,1,"6",3,1,1,0.6925,"9","6"
4,142,2,"practice",12,1,"3",3,1,1,0.6359,"9","6"
4,143,2,"practice",13,0,"3",0,0,1,0.6423,"9","6"
4,144,2,"practice",14,0,"6",0,0,1,0.6643,"9","6"
4,145,2,"practice",15,1,"6",10,1,1,0.9053,"9","6"
4,146,2,"practice",16,0,"3",0,0,1,0.6835,"9","6"
4,147,2,"practice",17,0,"6",0,0,1,0.6635,"9","6"
4,148,2,"practice",18,0,"4",0,0,1,0.566,"9","6"
4,149,2,"practice",19,0,"3",0,0,1,0.7654,"9","6"
4,150,2,"practice",20,1,"4",1,1,1,0.5944,"9","6"
4,151,2,"practice",21,1,"2",3,1,1,0.8234,"9","6"
4,152,2,"practice",22,0,"2",0,0,1,0.6895,"9","6"
4,153,2,"practice",23,0,"3",0,0,1,0.7955,"9","6"
4,154,2,"practice",24,1,"2",11,1,1,0.8318,"9","6"
4,155,2,"practice",25,1,"4",11,1,1,0.579,"9","6"
4,156,2,"practice",26,0,"3",0,0,1,0.7998,"9","6"
4,157,2,"practice",27,1,"4",1,1,1,1.1891,"9","6"
4,158,2,"practice",28,1,"3",1,1,1,0.7598,"9","6"
4,159,2,"practice",29,1,"2",8,1,1,0.4983,"9","6"
4,160,2,"practice",30,1,"6",9,1,1,0.7018,"9","6"
4,161,2,"experiment",1,1,"4",1,1,1,0.6214,"9","6"
4,162,2,"experiment",2,0,"4",0,0,1,0.7291,"9","6"
4,163,2,"experiment",3,1,"3",7,1,1,0.5013,"9","6"
4,164,2,"experiment",4,1,"6",9,1,1,0.5988,"9","6"
4,165,2,"experiment",5,0,"4",0,0,1,0.5016,"9","6"
4,166,2,"experiment",6,1,"2",11,1,1,0.5738,"9","6"
4,167,2,"experiment",7,1,"3",1,1,1,0.6008,"9","6"
4,168,2,"experiment",8,1,"3",6,1,1,0.6571,"9","6"
4,169,2,"experiment",9,0,"3",0,0,1,0.6645,"9","6"
4,170,2,"experiment",10,1,"2",7,1,1,0.6317,"9","6"
4,171,2,"experiment",11,0,"3",0,0,1,0.4852,"9","6"
4,172,2,"experiment",12,1,"3",4,1,1,0.5454,"9","6"
4,173,2,"experiment",13,1,"3",6,1,1,0.5881,"9","6"
4,174,2,"experiment",14,1,"4",10,1,1,0.7167,"9","6"
4,175,2,"experiment",15,0,"3",0,0,1,0.5761,"9","6"
4,176,2,"experiment",16,0,"6",0,0,1,0.6078,"9","6"
4,177,2,"experiment",17,1,"4",9,1,1,0.5151,"9","6"
4,178,2,"experiment",18,0,"3",0,0,1,0.566,"9","6"
4,179,2,"experiment",19,0,"6",0,0,1,0.746,"9","6"
4,180,2,"experiment",20,1,"2",10,1,1,0.4864,"9","6"
4,181,2,"experiment",21,0,"3",0,0,1,0.6555,"9","6"
4,182,2,"experiment",22,0,"4",0,0,1,0.582,"9","6"
4,183,2,"experiment",23,0,"4",0,0,1,0.5333,"9","6"
4,184,2,"experiment",24,0,"4",0,0,1,0.4856,"9","6"
4,185,2,"experiment",25,1,"6",3,0,0,0.8642,"9","6"
4,186,2,"experiment",26,1,"6",6,1,1,0.7582,"9","6"
4,187,2,"experiment",27,1,"4",3,1,1,1.0843,"9","6"
4,188,2,"experiment",28,0,"2",0,0,1,0.5604,"9","6"
4,189,2,"experiment",29,1,"6",6,1,1,0.5938,"9","6"
4,190,2,"experiment",30,1,"2",7,1,1,0.5939,"9","6"
4,191,2,"experiment",31,1,"4",4,1,1,0.6006,"9","6"
4,192,2,"experiment",32,1,"6",2,1,1,0.6419,"9","6"
4,193,2,"experiment",33,0,"3",0,0,1,0.6029,"9","6"
4,194,2,"experiment",34,1,"6",9,1,1,0.6911,"9","6"
4,195,2,"experiment",35,0,"4",0,0,1,1.1922,"9","6"
4,196,2,"experiment",36,0,"4",0,0,1,0.8692,"9","6"
4,197,2,"experiment",37,0,"4",0,0,1,0.7407,"9","6"
4,198,2,"experiment",38,1,"4",11,1,1,0.5008,"9","6"
4,199,2,"experiment",39,1,"4",1,1,1,0.7119,"9","6"
4,200,2,"experiment",40,0,"2",0,0,1,0.4664,"9","6"
4,201,2,"experiment",41,0,"6",0,0,1,0.9181,"9","6"
4,202,2,"experiment",42,0,"6",0,0,1,0.9094,"9","6"
4,203,2,"experiment",43,1,"6",10,1,1,0.5291,"9","6"
4,204,2,"experiment",44,1,"3",4,1,1,0.5321,"9","6"
4,205,2,"experiment",45,1,"2",7,1,1,0.4516,"9","6"
4,206,2,"experiment",46,1,"6",11,1,1,0.6035,"9","6"
4,207,2,"experiment",47,0,"3",0,0,1,1.1051,"9","6"
4,208,2,"experiment",48,0,"2",0,0,1,0.8974,"9","6"
4,209,2,"experiment",49,0,"6",0,0,1,0.7005,"9","6"
4,210,2,"experiment",50,1,"2",11,1,1,0.524,"9","6"
4,211,2,"experiment",51,1,"3",2,1,1,0.5526,"9","6"
4,212,2,"experiment",52,0,"4",0,0,1,0.665,"9","6"
4,213,2,"experiment",53,0,"6",0,0,1,1.1643,"9","6"
4,214,2,"experiment",54,1,"4",7,1,1,0.5985,"9","6"
4,215,2,"experiment",55,0,"4",0,0,1,0.8906,"9","6"
4,216,2,"experiment",56,1,"4",11,1,1,0.5873,"9","6"
4,217,2,"experiment",57,0,"3",0,0,1,0.6009,"9","6"
4,218,2,"experiment",58,0,"3",0,0,1,0.7162,"9","6"
4,219,2,"experiment",59,0,"4",0,0,1,0.703,"9","6"
4,220,2,"experiment",60,0,"3",0,0,1,0.5737,"9","6"
4,221,2,"experiment",61,0,"3",0,0,1,0.5703,"9","6"
4,222,2,"experiment",62,0,"3",0,0,1,0.5756,"9","6"
4,223,2,"experiment",63,1,"4",3,1,1,0.7043,"9","6"
4,224,2,"experiment",64,0,"2",0,0,1,0.5928,"9","6"
4,225,2,"experiment",65,1,"3",4,1,1,0.6426,"9","6"
4,226,2,"experiment",66,0,"3",0,0,1,0.6013,"9","6"
4,227,2,"experiment",67,1,"2",3,1,1,0.5116,"9","6"
4,228,2,"experiment",68,0,"4",0,0,1,0.5918,"9","6"
4,229,2,"experiment",69,0,"2",0,0,1,0.7044,"9","6"
4,230,2,"experiment",70,1,"4",5,1,1,0.5099,"9","6"
4,231,2,"experiment",71,0,"4",0,0,1,0.614,"9","6"
4,232,2,"experiment",72,0,"6",0,0,1,0.8826,"9","6"
4,233,2,"experiment",73,1,"2",9,1,1,0.5767,"9","6"
4,234,2,"experiment",74,1,"3",12,1,1,0.6996,"9","6"
4,235,2,"experiment",75,1,"6",3,1,1,0.824,"9","6"
4,236,2,"experiment",76,1,"3",7,1,1,0.4476,"9","6"
4,237,2,"experiment",77,0,"6",0,0,1,0.6283,"9","6"
4,238,2,"experiment",78,1,"6",4,1,1,0.7401,"9","6"
4,239,2,"experiment",79,1,"3",3,0,0,0.6321,"9","6"
4,240,2,"experiment",80,0,"3",0,0,1,0.9884,"9","6"
4,241,2,"experiment",81,1,"4",11,1,1,0.5578,"9","6"
4,242,2,"experiment",82,1,"2",10,1,1,0.6763,"9","6"
4,243,2,"experiment",83,0,"4",0,0,1,0.6727,"9","6"
4,244,2,"experiment",84,0,"4",0,0,1,0.6393,"9","6"
4,245,2,"experiment",85,0,"2",0,0,1,0.7352,"9","6"
4,246,2,"experiment",86,0,"2",0,0,1,0.5682,"9","6"
4,247,2,"experiment",87,1,"6",5,1,1,0.705,"9","6"
4,248,2,"experiment",88,1,"6",12,1,1,0.7824,"9","6"
4,249,2,"experiment",89,0,"4",0,0,1,0.6884,"9","6"
4,250,2,"experiment",90,0,"4",0,0,1,0.7469,"9","6"
4,251,2,"experiment",91,0,"3",0,0,1,0.7009,"9","6"
4,252,2,"experiment",92,1,"2",4,1,1,0.5507,"9","6"
4,253,2,"experiment",93,1,"6",11,1,1,0.7674,"9","6"
4,254,2,"experiment",94,0,"6",0,0,1,0.6421,"9","6"
4,255,2,"experiment",95,0,"2",0,0,1,0.6796,"9","6"
4,256,2,"experiment",96,1,"6",3,1,1,0.5381,"9","6"
4,257,2,"experiment",97,0,"4",0,0,1,0.5452,"9","6"
4,258,2,"experiment",98,0,"3",0,0,1,0.5251,"9","6"
4,259,2,"experiment",99,0,"4",0,0,1,0.477,"9","6"
4,260,2,"experiment",100,1,"6",7,1,1,0.5782,"9","6"
4,261,3,"practice",1,0,"6",0,0,1,0.6051,"9","6"
4,262,3,"practice",2,0,"2",0,0,1,0.592,"9","6"
4,263,3,"practice",3,1,"6",9,1,1,0.7528,"9","6"
4,264,3,"practice",4,0,"4",0,0,1,0.5953,"9","6"
4,265,3,"practice",5,1,"6",12,1,1,0.5533,"9","6"
4,266,3,"practice",6,0,"4",0,0,1,0.8551,"9","6"
4,267,3,"practice",7,1,"3",8,1,1,0.5385,"9","6"
4,268,3,"practice",8,1,"4",5,1,1,0.6503,"9","6"
4,269,3,"practice",9,1,"4",5,1,1,0.4777,"9","6"
4,270,3,"practice",10,1,"6",3,1,1,0.7713,"9","6"
4,271,3,"practice",11,0,"2",0,0,1,0.871,"9","6"
4,272,3,"practice",12,0,"6",0,0,1,0.72,"9","6"
4,273,3,"practice",13,0,"3",0,0,1,0.8892,"9","6"
4,274,3,"practice",14,1,"2",8,1,1,0.8902,"9","6"
4,275,3,"practice",15,1,"4",8,1,1,0.6572,"9","6"
4,276,3,"practice",16,0,"4",0,0,1,0.7303,"9","6"
4,277,3,"practice",17,1,"2",5,1,1,0.6346,"9","6"
4,278,3,"practice",18,0,"4",0,0,1,0.7321,"9","6"
4,279,3,"practice",19,0,"6",0,0,1,0.5565,"9","6"
4,280,3,"practice",20,0,"2",0,0,1,0.6418,"9","6"
4,281,3,"practice",21,1,"4",1,1,1,0.736,"9","6"
4,282,3,"practice",22,1,"2",9,1,1,0.5581,"9","6"
4,283,3,"practice",23,0,"4",0,0,1,0.9631,"9","6"
4,284,3,"practice",24,0,"6",0,0,1,0.8468,"9","6"
4,285,3,"practice",25,0,"6",0,0,1,1.3095,"9","6"
4,286,3,"practice",26,1,"6",9,1,1,0.5289,"9","6"
4,287,3,"practice",27,1,"3",7,1,1,0.5529,"9","6"
4,288,3,"practice",28,0,"3",0,0,1,0.9841,"9","6"
4,289,3,"practice",29,1,"6",5,1,1,0.648,"9","6"
4,290,3,"practice",30,1,"4",10,1,1,0.494,"9","6"
4,291,3,"experiment",1,0,"6",0,0,1,0.9762,"9","6"
4,292,3,"experiment",2,0,"3",0,0,1,0.5401,"9","6"
4,293,3,"experiment",3,0,"4",0,0,1,0.7137,"9","6"
4,294,3,"experiment",4,1,"4",10,1,1,0.4933,"9","6"
4,295,3,"experiment",5,1,"6",4,1,1,0.6489,"9","6"
4,296,3,"experiment",6,1,"4",10,1,1,0.519,"9","6"
4,297,3,"experiment",7,1,"3",12,1,1,0.814,"9","6"
4,298,3,"experiment",8,0,"3",0,0,1,0.5738,"9","6"
4,299,3,"experiment",9,0,"6",0,0,1,0.8436,"9","6"
4,300,3,"experiment",10,1,"6",7,1,1,0.6146,"9","6"
4,301,3,"experiment",11,0,"4",0,0,1,0.5426,"9","6"
4,302,3,"experiment",12,1,"2",5,1,1,0.4646,"9","6"
4,303,3,"experiment",13,1,"6",10,1,1,0.5535,"9","6"
4,304,3,"experiment",14,0,"4",0,0,1,0.4971,"9","6"
4,305,3,"experiment",15,0,"6",0,0,1,0.6314,"9","6"
4,306,3,"experiment",16,0,"2",0,0,1,0.5651,"9","6"
4,307,3,"experiment",17,0,"2",0,0,1,0.6247,"9","6"
4,308,3,"experiment",18,1,"4",6,1,1,0.8829,"9","6"
4,309,3,"experiment",19,1,"2",7,1,1,0.593,"9","6"
4,310,3,"experiment",20,0,"6",0,0,1,0.6967,"9","6"
4,311,3,"experiment",21,1,"3",8,1,1,0.6285,"9","6"
4,312,3,"experiment",22,0,"4",0,0,1,0.5768,"9","6"
4,313,3,"experiment",23,0,"4",0,0,1,1.1244,"9","6"
4,314,3,"experiment",24,1,"3",9,1,1,0.5058,"9","6"
4,315,3,"experiment",25,0,"3",0,0,1,0.5406,"9","6"
4,316,3,"experiment",26,0,"4",0,0,1,0.5337,"9","6"
4,317,3,"experiment",27,0,"2",0,0,1,0.4294,"9","6"
4,318,3,"experiment",28,0,"6",0,0,1,0.6433,"9","6"
4,319,3,"experiment",29,1,"3",4,1,1,0.5561,"9","6"
4,320,3,"experiment",30,1,"6",7,1,1,0.5582,"9","6"
4,321,3,"experiment",31,0,"4",0,0,1,0.5206,"9","6"
4,322,3,"experiment",32,0,"6",0,0,1,0.6665,"9","6"
4,323,3,"experiment",33,0,"4",0,0,1,0.8044,"9","6"
4,324,3,"experiment",34,0,"2",0,0,1,0.6751,"9","6"
4,325,3,"experiment",35,1,"4",10,1,1,0.5279,"9","6"
4,326,3,"experiment",36,1,"3",4,1,1,0.564,"9","6"
4,327,3,"experiment",37,0,"2",0,0,1,0.5314,"9","6"
4,328,3,"experiment",38,0,"3",0,0,1,0.5675,"9","6"
4,329,3,"experiment",39,0,"2",0,0,1,0.6166,"9","6"
4,330,3,"experiment",40,1,"4",9,1,1,0.5196,"9","6"
4,331,3,"experiment",41,0,"3",0,0,1,0.5756,"9","6"
4,332,3,"experiment",42,1,"3",4,1,1,0.5096,"9","6"
4,333,3,"experiment",43,0,"4",0,0,1,0.5433,"9","6"
4,334,3,"experiment",44,1,"2",9,1,1,0.4851,"9","6"
4,335,3,"experiment",45,1,"3",3,1,1,0.4796,"9","6"
4,336,3,"experiment",46,1,"3",1,1,1,0.6159,"9","6"
4,337,3,"experiment",47,0,"3",0,0,1,0.7101,"9","6"
4,338,3,"experiment",48,0,"4",0,0,1,0.7734,"9","6"
4,339,3,"experiment",49,1,"4",12,1,1,0.5336,"9","6"
4,340,3,"experiment",50,0,"2",0,0,1,0.4708,"9","6"
4,341,3,"experiment",51,0,"4",0,0,1,0.8692,"9","6"
4,342,3,"experiment",52,1,"6",12,1,1,0.6258,"9","6"
4,343,3,"experiment",53,1,"6",11,1,1,0.5126,"9","6"
4,344,3,"experiment",54,0,"3",0,0,1,0.5346,"9","6"
4,345,3,"experiment",55,0,"4",0,0,1,0.8216,"9","6"
4,346,3,"experiment",56,0,"4",0,0,1,0.5662,"9","6"
4,347,3,"experiment",57,1,"2",5,1,1,0.5408,"9","6"
4,348,3,"experiment",58,0,"2",0,0,1,0.581,"9","6"
4,349,3,"experiment",59,1,"4",12,1,1,0.4889,"9","6"
4,350,3,"experiment",60,0,"6",0,0,1,0.6715,"9","6"
4,351,3,"experiment",61,0,"3",0,0,1,0.8476,"9","6"
4,352,3,"experiment",62,0,"2",0,0,1,0.5745,"9","6"
4,353,3,"experiment",63,1,"6",4,1,1,0.528,"9","6"
4,354,3,"experiment",64,0,"4",0,0,1,0.5855,"9","6"
4,355,3,"experiment",65,1,"2",9,1,1,1.0281,"9","6"
4,356,3,"experiment",66,1,"4",5,1,1,0.6022,"9","6"
4,357,3,"experiment",67,0,"6",0,0,1,0.9984,"9","6"
4,358,3,"experiment",68,0,"4",0,0,1,0.7529,"9","6"
4,359,3,"experiment",69,0,"2",0,0,1,0.5428,"9","6"
4,360,3,"experiment",70,1,"6",6,1,1,0.6428,"9","6"
4,361,3,"experiment",71,0,"6",0,0,1,0.8539,"9","6"
4,362,3,"experiment",72,0,"3",0,0,1,0.8486,"9","6"
4,363,3,"experiment",73,1,"3",3,1,1,0.4914,"9","6"
4,364,3,"experiment",74,1,"2",10,1,1,0.5135,"9","6"
4,365,3,"experiment",75,1,"2",4,1,1,0.8125,"9","6"
4,366,3,"experiment",76,0,"2",0,0,1,0.525,"9","6"
4,367,3,"experiment",77,0,"2",0,0,1,0.4421,"9","6"
4,368,3,"experiment",78,1,"6",4,1,1,0.6936,"9","6"
4,369,3,"experiment",79,1,"2",11,1,1,0.5035,"9","6"
4,370,3,"experiment",80,1,"3",4,1,1,0.6356,"9","6"
4,371,3,"experiment",81,0,"4",0,0,1,0.6208,"9","6"
4,372,3,"experiment",82,0,"4",0,0,1,0.5943,"9","6"
4,373,3,"experiment",83,1,"2",12,1,1,0.4708,"9","6"
4,374,3,"experiment",84,1,"4",7,1,1,0.6592,"9","6"
4,375,3,"experiment",85,1,"6",7,1,1,0.567,"9","6"
4,376,3,"experiment",86,0,"3",0,0,1,0.6885,"9","6"
4,377,3,"experiment",87,1,"3",8,1,1,0.5139,"9","6"
4,378,3,"experiment",88,1,"2",12,1,1,0.4161,"9","6"
4,379,3,"experiment",89,0,"6",0,0,1,0.6344,"9","6"
4,380,3,"experiment",90,0,"4",0,0,1,0.6624,"9","6"
4,381,3,"experiment",91,1,"4",3,1,1,0.9743,"9","6"
4,382,3,"experiment",92,1,"3",9,1,1,0.476,"9","6"
4,383,3,"experiment",93,1,"2",7,1,1,0.4274,"9","6"
4,384,3,"experiment",94,1,"2",11,1,1,0.3975,"9","6"
4,385,3,"experiment",95,1,"4",12,1,1,0.4099,"9","6"
4,386,3,"experiment",96,1,"6",3,1,1,0.9024,"9","6"
4,387,3,"experiment",97,1,"4",6,1,1,0.7573,"9","6"
4,388,3,"experiment",98,0,"3",0,0,1,0.6806,"9","6"
4,389,3,"experiment",99,1,"6",11,1,1,0.6925,"9","6"
4,390,3,"experiment",100,0,"6",0,0,1,0.6177,"9","6"
4,391,4,"practice",1,1,"4",2,1,1,1.1658,"6","9"
4,392,4,"practice",2,1,"6",5,1,1,0.9273,"6","9"
4,393,4,"practice",3,1,"6",9,1,1,1.0091,"6","9"
4,394,4,"practice",4,1,"4",4,1,1,0.6372,"6","9"
4,395,4,"practice",5,1,"6",8,1,1,0.9928,"6","9"
4,396,4,"practice",6,1,"6",11,1,1,0.764,"6","9"
4,397,4,"practice",7,0,"6",0,0,1,0.927,"6","9"
4,398,4,"practice",8,1,"6",9,1,1,0.9391,"6","9"
4,399,4,"practice",9,1,"4",11,1,1,0.63,"6","9"
4,400,4,"practice",10,0,"6",0,0,1,0.8267,"6","9"
4,401,4,"practice",11,1,"4",9,1,1,0.4699,"6","9"
4,402,4,"practice",12,0,"4",0,0,1,0.6142,"6","9"
4,403,4,"practice",13,0,"2",0,0,1,1.2298,"6","9"
4,404,4,"practice",14,1,"6",1,1,1,0.5517,"6","9"
4,405,4,"practice",15,0,"4",0,0,1,1.1897,"6","9"
4,406,4,"practice",16,1,"3",9,1,1,0.932,"6","9"
4,407,4,"practice",17,0,"4",0,0,1,0.8323,"6","9"
4,408,4,"practice",18,0,"4",0,0,1,0.9105,"6","9"
4,409,4,"practice",19,1,"4",1,1,1,0.7523,"6","9"
4,410,4,"practice",20,0,"3",0,0,1,0.5576,"6","9"
4,411,4,"practice",21,0,"3",0,0,1,0.7123,"6","9"
4,412,4,"practice",22,1,"2",10,0,0,0.8082,"6","9"
4,413,4,"practice",23,1,"3",4,1,1,1.0974,"6","9"
4,414,4,"practice",24,0,"6",0,0,1,0.655,"6","9"
4,415,4,"practice",25,1,"2",2,1,1,1.0416,"6","9"
4,416,4,"practice",26,0,"4",0,0,1,0.6356,"6","9"
4,417,4,"practice",27,1,"3",10,1,1,1.0346,"6","9"
4,418,4,"practice",28,0,"2",0,0,1,0.6206,"6","9"
4,419,4,"practice",29,0,"3",0,0,1,0.7741,"6","9"
4,420,4,"practice",30,1,"4",1,1,1,1.9541,"6","9"
4,421,4,"experiment",1,1,"3",2,1,1,0.4759,"6","9"
4,422,4,"experiment",2,1,"3",3,1,1,0.4287,"6","9"
4,423,4,"experiment",3,1,"3",10,1,1,0.5587,"6","9"
4,424,4,"experiment",4,0,"2",0,0,1,0.4624,"6","9"
4,425,4,"experiment",5,0,"2",0,0,1,0.4633,"6","9"
4,426,4,"experiment",6,0,"2",0,0,1,0.4101,"6","9"
4,427,4,"experiment",7,1,"4",2,1,1,0.5525,"6","9"
4,428,4,"experiment",8,0,"4",0,0,1,0.7401,"6","9"
